timestamp,q_w,q_x,q_y,q_z,x,y,z,speed_x,speed_y,speed_z,gyr_x,gyr_y,gyr_z
1690153980518.4065,0.99636656,-0.00000362393,0.000003624055,0.08516861,-4.361851e-12,2.0,-3.732294e-16,-1.6695283e-9,1.6846049e-9,-2.7422509e-14,-2.3637259e-11,-2.2219877e-9,3.9166198e-7
1690153980534.9607,0.99636656,-0.00000362393,0.000003624055,0.08516861,4.931797e-11,2.0,3.539667e-16,-3.5323298e-9,1.5188597e-8,-1.5354384e-13,-2.1648477e-12,-7.5751083e-10,-9.6060084e-8
1690153980563.7412,0.99636656,-0.00000362393,0.000003624055,0.08516861,-3.6701895e-11,2.0,-1.4945548e-15,-2.906523e-9,1.0415658e-8,-1.0114132e-13,-9.352032e-13,-7.5687795e-10,-1.4047015e-7
1690153980574.4492,0.99636656,-0.00000362393,0.000003624055,0.08516861,3.905243e-11,2.0,-5.7492e-16,-1.4829353e-9,8.327729e-9,-1.5443202e-13,-5.650169e-12,-7.5977147e-10,1.01605046e-7
1690153980585.1016,0.99636656,-0.00000362393,0.000003624055,0.08516861,-4.772629e-11,2.0,-1.490854e-15,-2.0233573e-9,2.3308444e-9,1.120215e-13,2.4758362e-11,-7.503865e-10,2.883626e-7
1690153980605.6182,0.99636656,-0.00000362393,0.000003624055,0.08516861,1.0859067e-11,2.0,9.446628e-16,1.1197101e-9,-5.5855707e-9,4.096723e-14,-3.08455e-11,-1.1860851e-9,9.004962e-8
1690153980618.4253,0.99636656,-0.00000362393,0.000003624055,0.08516861,2.2714212e-11,2.0,-1.2448388e-16,-3.129772e-9,7.452561e-9,1.9650948e-14,-1.1397933e-12,-1.2040593e-9,8.818524e-8
1690153980641.3167,0.99636656,-0.00000362393,0.000003624055,0.08516861,-4.495212e-11,2.0,-7.443584e-16,2.9237643e-9,-9.311316e-9,1.04916076e-13,6.672283e-12,-7.539554e-10,3.4663884e-7
1690153980652.3481,0.99636656,-0.00000362393,0.000003624055,0.08516861,-1.0451657e-11,2.0,-8.567546e-16,1.8177104e-9,-7.4488e-9,1.0669243e-13,7.635221e-12,-9.877275e-10,2.9011096e-7
1690153980668.5496,0.99636656,-0.00000362393,0.000003624055,0.08516861,3.926542e-11,2.0,2.8162336e-15,-4.1193418e-9,1.3971772e-8,-1.0647039e-13,1.3691728e-12,-7.558046e-10,9.071743e-8
1690153980698.6726,0.99636656,-0.00000362393,0.000003624055,0.08516861,1.4181479e-11,2.0,9.996837e-16,-1.2090586e-9,4.192767e-9,1.8873791e-15,-1.4363712e-11,-1.1442064e-9,6.170078e-7
1690153980709.2043,0.99636656,-0.00000362393,0.000003624055,0.08516861,9.7335855e-12,2.0,2.1731007e-15,-1.9656443e-9,1.3506128e-8,-4.0745185e-14,-3.043306e-12,-7.8277174e-10,2.6483997e-7
1690153980718.5876,0.99636656,-0.00000362393,0.000003624055,0.08516861,-2.3003661e-11,2.0,-2.2955474e-15,-3.1587204e-9,6.754254e-9,4.096723e-14,-2.063415e-11,-7.594572e-10,1.13770426e-7
1690153980738.7004,0.99636656,-0.00000362393,0.000003624055,0.08516861,4.5521364e-12,2.0,-4.0186292e-16,4.4994364e-10,-8.147158e-9,1.7952306e-13,1.7797304e-11,-1.2326224e-9,-3.2827668e-8
1690153980752.009,0.99636656,-0.00000362393,0.000003624055,0.08516861,-2.2714257e-12,2.0,2.2863108e-16,-1.12205e-9,-1.3955281e-9,-5.2180482e-15,2.3980715e-11,-1.329035e-9,1.6046845e-7
1690153980776.2268,0.99636656,-0.00000362393,0.000003624055,0.08516861,-3.6478293e-11,2.0,-5.688792e-16,4.2043147e-11,6.986304e-9,-6.028511e-14,5.1511117e-12,-7.536301e-10,2.5030963e-7
1690153980787.0786,0.99636656,-0.00000362393,0.000003624055,0.08516861,3.369864e-11,2.0,1.253361e-16,3.068791e-9,-6.5179337e-9,4.5408122e-14,-8.564652e-12,-9.76598e-10,2.2602342e-7
1690153980801.996,0.99636656,-0.00000362393,0.000003624055,0.08516861,1.5014675e-11,2.0,1.1189858e-15,-2.2279143e-9,3.02835e-9,2.2315483e-14,6.8873284e-12,-7.5387635e-10,7.620601e-8
1690153980818.713,0.99636656,-0.00000362393,0.000003624055,0.08516861,9.801613e-13,2.0,1.287525e-16,1.0316503e-9,-4.422307e-9,1.3433699e-14,4.282076e-12,-1.1755285e-9,4.455748e-8
1690153980836.3142,0.99636656,-0.00000362393,0.000003624055,0.08516861,-3.1766183e-11,2.0,9.532807e-16,-6.562899e-10,-1.8610726e-9,6.3282712e-15,2.2214139e-11,-8.5473284e-10,2.5788816e-7
1690153980851.903,0.99636656,-0.00000362393,0.000003624055,0.08516861,2.7167529e-11,2.0,-8.360287e-16,-4.032151e-9,1.3040305e-8,-7.771561e-16,-6.9351087e-12,-7.575458e-10,2.495692e-7
1690153980872.5452,0.99636656,-0.00000362393,0.000003624055,0.08516861,6.557411e-12,2.0,9.840903e-17,3.2185352e-9,-9.2384465e-9,1.4310775e-13,2.4524157e-13,-7.571686e-10,3.9746757e-9
1690153980885.4033,0.99636656,-0.00000362393,0.000003624055,0.08516861,9.5110066e-12,2.0,-2.0550612e-15,-1.9036563e-9,1.5208869e-8,-1.5709656e-13,4.076961e-11,-8.223528e-10,-4.3781437e-8
1690153980909.0789,0.99636656,-0.00000362393,0.000003624055,0.08516861,3.6020242e-11,2.0,3.3794806e-15,1.0795649e-9,-6.793533e-9,4.1855408e-14,-2.5427289e-11,-7.639166e-10,-5.293341e-7
1690153980935.5496,0.99636656,-0.00000362393,0.000003624055,0.08516861,-2.9374315e-12,2.0,-3.6932076e-16,-1.5400077e-9,-1.6715291e-9,6.317169e-14,4.0140342e-11,-1.0039809e-9,-3.7471093e-8
1690153980952.1594,0.99636656,-0.00000362393,0.000003624055,0.08516861,2.9628095e-11,2.0,1.6309312e-15,-7.8338624e-10,8.8951513e-10,1.0669243e-13,1.263695e-11,-7.5025547e-10,5.100886e-7
1690153980969.3052,0.99636656,-0.00000362393,0.000003624055,0.08516861,2.0476575e-11,2.0,1.2775102e-15,-1.445511e-9,-2.195506e-9,7.382983e-14,-1.6820817e-11,-7.6171197e-10,-3.6746246e-7
1690153980985.6516,0.99636656,-0.00000362393,0.000003624055,0.08516861,2.7451652e-11,2.0,2.270817e-15,5.972609e-10,-1.3043903e-8,3.2085445e-14,-8.868826e-12,-7.574747e-10,4.8216325e-8
1690153981004.4255,0.99636656,-0.00000362393,0.000003624055,0.08516861,2.1910586e-11,2.0,1.3844889e-15,1.8402813e-10,7.574433e-9,-1.5443202e-13,8.120086e-13,-7.5630796e-10,-4.83566e-8
1690153981018.8535,0.99636656,-0.00000362393,0.000003624055,0.08516861,-4.9465466e-12,2.0,2.5527074e-15,-2.1660662e-9,1.6713084e-8,-1.100231e-13,-1.01724774e-11,-7.862195e-10,6.547827e-7
1690153981043.109,0.99636656,-0.00000362393,0.000003624055,0.08516861,1.33077264e-11,2.0,1.1926841e-15,-4.779971e-10,5.0134004e-9,-1.6320278e-14,-1.7115925e-11,-7.636304e-10,-6.2532206e-7
1690153981053.8801,0.99636656,-0.00000362393,0.000003624055,0.08516861,-3.5632938e-11,2.0,9.646685e-16,1.5591434e-9,-1.9716704e-9,1.0447199e-13,4.070008e-11,-8.9905894e-10,6.028708e-8
1690153981068.8354,0.99636656,-0.00000362393,0.000003624055,0.08516861,-1.738248e-11,2.0,-3.731503e-16,-2.3407987e-9,5.478876e-9,-4.7406523e-14,-5.8057678e-12,-7.574955e-10,3.4587945e-8
1690153981085.476,0.99636656,-0.00000362393,0.000003624055,0.08516861,-4.9728407e-12,2.0,9.513564e-16,3.0139353e-9,-5.6974354e-9,7.338574e-14,1.2601148e-12,-1.1854767e-9,-3.5060796e-7
1690153981102.3462,0.99636656,-0.00000362393,0.000003624055,0.08516861,-1.1902928e-11,2.0,-4.6484533e-17,-1.4682469e-9,6.6423604e-9,-3.141931e-14,-1.431518e-11,-8.730925e-10,1.3635636e-7
1690153981103.3613,0.99636656,-0.00000362393,0.000003624055,0.08516861,5.2831545e-11,2.0,1.0866539e-15,-3.0407676e-10,5.887837e-10,5.6732397e-14,9.087909e-12,-7.548158e-10,1.2750796e-7
1690153981137.925,0.99636656,-0.00000362393,0.000003624055,0.08516861,2.8382234e-11,2.0,-5.731296e-16,2.4245517e-9,-8.622408e-9,5.2180482e-15,1.0603368e-11,-7.5442713e-10,1.471492e-7
1690153981152.3584,0.99636656,-0.00000362393,0.000003624055,0.08516861,1.855614e-11,2.0,3.46366e-15,1.2896867e-9,-6.35209e-9,-6.5836225e-14,8.244123e-12,-7.756995e-10,-6.1810925e-7
1690153981170.2598,0.99636656,-0.00000362393,0.000003624055,0.08516861,5.1541835e-12,2.0,1.8926943e-15,3.5053969e-9,-1.5752413e-8,1.8640645e-13,1.0857116e-11,-7.51071e-10,3.9951414e-7
1690153981185.6946,0.99636656,-0.00000362393,0.000003624055,0.08516861,-5.1786905e-11,2.0,-1.9821621e-15,-5.109335e-10,3.1068677e-9,-9.836576e-14,-2.8959609e-11,-8.8178015e-10,3.044192e-8
1690153981202.1147,0.99636656,-0.00000362393,0.000003624055,0.08516861,-5.946889e-12,2.0,1.5890554e-15,1.2937879e-10,5.4352074e-9,-2.997602e-14,9.6818985e-12,-7.5609713e-10,-1.754217e-7
1690153981223.6462,0.99636656,-0.00000362393,0.000003624055,0.08516861,6.5910662e-12,2.0,7.065297e-16,2.079256e-9,-4.9258504e-9,8.726353e-14,-2.0678476e-11,-8.4386953e-10,-4.80014e-7
1690153981235.7966,0.99636656,-0.00000362393,0.000003624055,0.08516861,6.366704e-11,2.0,-1.9354655e-16,-3.4796097e-9,1.1605085e-8,-6.328271e-14,6.9391086e-12,-7.6783657e-10,-2.1521504e-7
1690153981258.621,0.99636656,-0.00000362393,0.000003624055,0.08516861,2.5102594e-11,2.0,1.5939125e-15,4.9229287e-11,-1.3752235e-9,-2.6464941e-14,2.08427e-12,-7.5727974e-10,-1.7932196e-7
1690153981269.3083,0.99636656,-0.00000362393,0.000003624055,0.08516861,-9.815145e-12,2.0,2.2838969e-15,8.6385493e-10,4.2123776e-9,-5.488665e-14,-3.0631286e-11,-1.0889403e-9,6.462345e-8
1690153981298.9707,0.99636656,-0.00000362393,0.000003624055,0.08516861,-7.0373217e-12,2.0,-7.62509e-16,-2.3958338e-9,4.6779682e-9,6.23529e-14,-7.440376e-12,-7.5876005e-10,-7.9987515e-8
1690153981310.9148,0.99636656,-0.00000362393,0.000003624055,0.08516861,9.755051e-12,2.0,-9.2997177e-17,1.096319e-9,-7.4295894e-9,9.077461e-14,-1.9003918e-11,-1.1967308e-9,-6.550297e-7
1690153981319.8484,0.99636656,-0.00000362393,0.000003624055,0.08516861,-2.9989232e-12,2.0,1.4199131e-15,1.8530191e-9,-1.8416535e-9,-4.2695014e-14,1.4236545e-11,-7.5591056e-10,-2.7164526e-7
1690153981335.9326,0.99636656,-0.00000362393,0.000003624055,0.08516861,2.7797844e-11,2.0,4.7677896e-17,1.8529174e-9,-9.1045166e-10,5.8557326e-14,-1.0351686e-11,-1.0536929e-9,2.3808073e-7
1690153981352.502,0.99636656,-0.00000362393,0.000003624055,0.08516861,1.4349862e-11,2.0,-6.276708e-17,-1.2323744e-9,4.8619303e-10,-4.8024085e-14,-9.211058e-12,-1.4433206e-9,4.269046e-7
1690153981403.3823,0.99636656,-0.00000362393,0.000003624055,0.08516861,2.7897901e-11,2.0,9.668441e-16,-2.163667e-9,1.4175512e-9,-1.16087695e-14,-2.6826278e-12,-8.073541e-10,-2.033843e-7
1690153981435.5947,0.99636656,-0.00000362393,0.000003624055,0.08516861,-3.8896615e-11,2.0,6.676229e-17,-1.0720698e-9,1.294291e-8,-1.1819018e-13,5.611574e-13,-7.588955e-10,-1.01820284e-7
1690153981444.2983,0.9963942,-0.0000036101133,0.000003624137,0.08484452,-0.000081798644,1.9971027,-3.183743e-9,-0.0034832295,-0.16421176,-1.3555945e-7,0.00000814509,-4.326911e-8,-0.20884578
1690153981452.7852,0.9963997,-0.0000036073793,0.00000362415,0.08478038,-0.0007680395,1.9955326,-2.9885427e-8,-0.041133214,-0.094220355,-0.0000016004915,0.000014727096,-4.3043848e-8,-0.377768
1690153981469.0635,0.9964024,-0.0000036060183,0.0000036241563,0.08474844,-0.001393929,1.9953505,-5.4239393e-8,-0.06904023,-0.020114794,-0.0000026864154,0.000014960927,-4.221065e-8,-0.38376307
1690153981488.5254,0.9964047,-0.0000036048514,0.0000036241618,0.08472106,-0.0021948428,1.995956,-8.540394e-8,-0.09891275,0.074783675,-0.0000038488265,0.000014929859,-4.151274e-8,-0.38296488
1690153981502.876,0.99640924,-0.0000036025879,0.0000036241722,0.084667936,-0.005080494,2.0020947,-1.9768987e-7,-0.17826974,0.37924778,-0.0000069368,0.000014630072,-4.009531e-8,-0.37527856
1690153981533.1968,0.9964139,-0.000003600249,0.0000036241831,0.08461305,-0.009822387,2.0160325,-3.8220657e-7,-0.28451517,0.83631647,-0.0000110710625,0.00001445488,-3.870211e-8,-0.37078476
1690153981535.992,0.9964178,-0.0000035982614,0.0000036241927,0.0845664,-0.015363798,2.0346985,-5.978346e-7,-0.3901159,1.3141967,-0.000015180238,0.000014350961,-3.781482e-8,-0.36812207
1690153981562.9333,0.99642235,-0.0000035959886,0.0000036242038,0.08451307,-0.024569862,2.069692,-9.560629e-7,-0.55238426,2.099752,-0.000021494478,0.00001413278,-3.50207e-8,-0.36253443
1690153981580.1177,0.9964231,-0.00000359561,0.0000036242056,0.08450418,-0.02598734,2.075141,-0.00000101122,-0.5767576,2.2181332,-0.000022442893,0.000014285731,-3.4533915e-8,-0.36643896
1690153981586.7056,0.99642754,-0.0000035934042,0.0000036242166,0.08445243,-0.038913764,2.1287832,-0.0000015142159,-0.7755858,3.218538,-0.000030179759,0.000013915345,-3.2191064e-8,-0.35696352
1690153981602.74,0.9964319,-0.0000035911942,0.0000036242277,0.08440056,-0.055512264,2.2012067,-0.0000021601002,-0.99599284,4.345908,-0.000038756287,0.000013700986,-2.9180155e-8,-0.35146293
1690153981623.5317,0.9964336,-0.0000035903383,0.000003624232,0.08438048,-0.062284995,2.2311738,-0.0000024236424,-1.0816379,4.786361,-0.000042088934,0.000013749005,-2.8397096e-8,-0.35271946
1690153981635.9333,0.99643767,-0.0000035882824,0.0000036242427,0.08433223,-0.083515234,2.3281102,-0.0000032497578,-1.3208483,6.0309687,-0.00005139713,0.000013415809,-2.6600647e-8,-0.3441576
1690153981664.031,0.99644184,-0.0000035861672,0.000003624254,0.08428259,-0.10968506,2.4502764,-0.0000042680836,-1.5703394,7.330844,-0.00006110537,0.000013169121,-2.571571e-8,-0.33783594
1690153981669.2507,0.99644494,-0.0000035846003,0.0000036242625,0.08424582,-0.13149084,2.5533297,-0.000005116595,-1.7563586,8.300784,-0.000068343776,0.000013026702,-2.481695e-8,-0.33417788
1690153981697.9507,0.996449,-0.0000035825694,0.0000036242736,0.08419816,-0.1649387,2.7134666,-0.000006418124,-2.0069947,9.60894,-0.00007809655,0.000012728806,-2.2388226e-8,-0.32653216
1690153981708.8447,0.9964503,-0.0000035819187,0.0000036242773,0.08418289,-0.17573802,2.7653413,-0.000006838349,-2.0847812,10.015129,-0.000081123384,0.000012743859,-2.1580371e-8,-0.32692853
1690153981719.559,0.9964542,-0.0000035799562,0.0000036242877,0.084136836,-0.2146788,2.9541821,-0.000008353619,-2.3364713,11.330594,-0.00009091717,0.000012373017,-2.254386e-8,-0.31740752
1690153981736.0376,0.9964567,-0.0000035786866,0.000003624295,0.08410704,-0.2415943,3.0853693,-0.000009400959,-2.4991128,12.181198,-0.00009724588,0.000012228134,-2.013753e-8,-0.31370556
1690153981755.2432,0.99645907,-0.0000035774838,0.0000036243016,0.08407881,-0.26936302,3.2213101,-0.0000104815,-2.6571324,13.008091,-0.000103394734,0.000012041445,-2.2156467e-8,-0.30891132
1690153981769.338,0.9964627,-0.0000035756377,0.0000036243114,0.0840355,-0.3174498,3.4581318,-0.000012352659,-2.9077954,14.320673,-0.00011314853,0.000011708848,-2.2945734e-8,-0.30036366
1690153981790.5322,0.9964663,-0.0000035738235,0.000003624321,0.08399293,-0.3701238,3.7188737,-0.000014402315,-3.1608217,15.64672,-0.00012299427,0.000011397865,-2.2340457e-8,-0.29237753
1690153981802.8508,0.9964693,-0.000003572342,0.000003624329,0.08395816,-0.41718012,3.9526772,-0.000016233374,-3.3728602,16.758757,-0.0001312451,0.000011132075,-2.1479865e-8,-0.28554142
1690153981826.309,0.99647266,-0.0000035706298,0.0000036243382,0.083918005,-0.4776227,4.2541804,-0.000018585322,-3.626874,18.092016,-0.00014112926,0.000010787798,-2.1066525e-8,-0.27672404
1690153981837.983,0.99647504,-0.0000035694222,0.0000036243448,0.08388968,-0.52359945,4.4841065,-0.000020374373,-3.8108203,19.058126,-0.00014828694,0.000010540935,-1.8949207e-8,-0.27035692
1690153981869.7803,0.9964782,-0.0000035678113,0.000003624353,0.08385188,-0.59135985,4.824062,-0.000023011069,-4.0658937,20.398878,-0.00015821232,0.000010181733,-2.0320185e-8,-0.26113883
1690153981897.968,0.9964802,-0.000003566774,0.0000036243587,0.083827555,-0.6382852,5.0599384,-0.00002483703,-4.235418,21.290472,-0.00016480882,0.000009931801,-1.8755022e-8,-0.25474218
1690153981908.8542,0.9964832,-0.0000035652647,0.0000036243664,0.08379214,-0.71314394,5.437247,-0.000027749938,-4.4917808,22.639969,-0.00017478435,0.000009561117,-1.8181515e-8,-0.24520487
1690153981919.5134,0.99648607,-0.000003563825,0.000003624374,0.083758384,-0.79228115,5.8370943,-0.000030829327,-4.7488494,23.994387,-0.00018478735,0.000009181642,-1.7579914e-8,-0.23542932
1690153981945.4158,0.9964879,-0.0000035628884,0.0000036243787,0.08373641,-0.84798294,6.118962,-0.000032996795,-4.923367,24.914337,-0.00019157813,0.000008882008,-1.8769782e-8,-0.2277542
1690153981957.0237,0.9964895,-0.0000035620674,0.0000036243828,0.08371717,-0.8995,6.3799953,-0.000035001427,-5.0800405,25.740572,-0.00019767456,0.000008610834,-1.8869914e-8,-0.22076742
1690153981985.3328,0.9964921,-0.0000035607707,0.0000036243891,0.08368676,-0.9884739,6.831732,-0.00003846358,-5.3386927,27.105669,-0.00020773915,0.0000082434435,-1.8609134e-8,-0.21131267
1690153981987.361,0.99649376,-0.0000035599298,0.0000036243935,0.08366708,-1.0521449,7.155414,-0.000040941144,-5.517646,28.050585,-0.00021470252,0.00000791688,-1.7049677e-8,-0.20291382
1690153982002.9827,0.9964961,-0.0000035587557,0.0000036243987,0.08363951,-1.1484295,7.6457686,-0.000044687764,-5.777441,29.423374,-0.00022481153,0.0000075220914,-1.8398122e-8,-0.19271266
1690153982026.9695,0.99649614,-0.0000035587072,0.0000036243987,0.083638385,-1.1552157,7.680326,-0.00004495183,-5.795478,29.519451,-0.00022551353,0.000007621459,-2.0178904e-8,-0.19555232
1690153982037.6526,0.9964982,-0.0000035576547,0.0000036244037,0.083613746,-1.2502074,8.164906,-0.000048648144,-6.0410156,30.81689,-0.00023506767,0.000007045064,-1.788692e-8,-0.18049565
1690153982060.4263,0.9965002,-0.0000035566418,0.000003624408,0.083589986,-1.3552266,8.701455,-0.000052734642,-6.3018985,32.197273,-0.000245219,0.0000066220487,-1.7478312e-8,-0.1696069
1690153982069.4688,0.9965014,-0.0000035560388,0.0000036244103,0.08357582,-1.4260654,9.063716,-0.000055491113,-6.473098,33.10343,-0.0002518806,0.0000062404247,-1.6727176e-8,-0.15979145
1690153982095.0857,0.9965032,-0.0000035551345,0.0000036244146,0.083554685,-1.5383112,9.638533,-0.00005985881,-6.7351394,34.491238,-0.00026207708,0.0000058304095,-1.5807279e-8,-0.14929552
1690153982106.0466,0.996504,-0.000003554718,0.000003624416,0.083544925,-1.600457,9.957004,-0.00006227702,-6.87688,35.24218,-0.00026759246,0.0000054626576,-1.6693665e-8,-0.1399792
1690153982119.8293,0.99650556,-0.0000035539297,0.0000036244196,0.0835265,-1.7194536,10.567599,-0.0000669074,-7.140078,36.637363,-0.0002778338,0.000005071705,-1.3592256e-8,-0.12987539
1690153982136.4392,0.9965064,-0.0000035534915,0.0000036244205,0.08351616,-1.8023647,10.993373,-0.000070133625,-7.318718,37.58469,-0.0002847849,0.000004658558,-1.4864928e-8,-0.11918964
1690153982155.285,0.9965074,-0.0000035529788,0.0000036244223,0.08350417,-1.9030666,11.510993,-0.00007405212,-7.530283,38.706932,-0.00029301722,0.000004257623,-1.5272896e-8,-0.10896155
1690153982169.841,0.9965085,-0.000003552417,0.000003624424,0.083491065,-2.032608,12.177583,-0.00007909282,-7.793842,40.10567,-0.0003032727,0.000003819581,-1.6397848e-8,-0.09774597
1690153982196.0305,0.9965094,-0.0000035519688,0.0000036244244,0.08348056,-2.1668983,12.869327,-0.00008431829,-8.058507,41.51086,-0.00031357113,0.0000033074691,-1.7359284e-8,-0.08449406
1690153982202.95,0.99650997,-0.0000035516628,0.0000036244244,0.08347341,-2.2862897,13.48485,-0.00008896403,-8.28753,42.72717,-0.00032248275,0.0000027838125,-1.68645e-8,-0.0711247
1690153982225.434,0.99651057,-0.000003551357,0.0000036244242,0.08346636,-2.4288352,14.220449,-0.00009451073,-8.553602,44.14096,-0.00033283597,0.0000022856575,-1.6599838e-8,-0.058276635
1690153982236.9673,0.9965106,-0.0000035513272,0.0000036244235,0.08346571,-2.487464,14.523105,-0.000096792086,-8.661123,44.71237,-0.00033701977,0.0000018357614,-1.537694e-8,-0.04669142
1690153982253.1284,0.99651104,-0.000003551109,0.0000036244226,0.0834606,-2.6362705,15.29199,-0.00010258241,-8.928595,46.134296,-0.00034742735,0.0000014806933,-1.4603255e-8,-0.037518166
1690153982275.47,0.99651104,-0.0000035510975,0.0000036244214,0.08346041,-2.7386615,15.821341,-0.00010656662,-9.108546,47.09124,-0.00035442956,9.73467e-7,-1.3147517e-8,-0.024597537
1690153982287.7034,0.9965111,-0.0000035510623,0.0000036244196,0.08345967,-2.88914,16.599928,-0.000112422,-9.366961,48.46569,-0.00036448476,5.3540845e-7,-1.41883145e-8,-0.013302972
1690153982308.889,0.9965109,-0.0000035511537,0.0000036244169,0.08346187,-3.0497117,17.431389,-0.00011867013,-9.635542,49.894768,-0.0003749355,-1.1166727e-8,-1.1699128e-8,0.00081648
1690153982319.8853,0.99651057,-0.0000035513337,0.000003624414,0.08346607,-3.17125,18.061079,-0.00012339938,-9.834656,50.954296,-0.00038268324,-5.8413553e-7,-9.994695e-9,0.0155871175
1690153982346.2495,0.9965102,-0.0000035515611,0.000003624411,0.08347153,-3.3396473,18.93419,-0.000129952,-10.104593,52.391106,-0.00039318687,-0.0000010696014,-1.1288336e-8,0.027999656
1690153982356.6226,0.9965096,-0.0000035518428,0.000003624408,0.083478294,-3.4495814,19.504429,-0.00013422972,-10.277473,53.311394,-0.00039991384,-0.0000016399454,-1.1495174e-8,0.04264408
1690153982385.6248,0.99650884,-0.0000035522191,0.000003624404,0.0834873,-3.6253853,20.416977,-0.00014107054,-10.548833,54.75631,-0.0004104727,-0.0000020842829,-1.1330905e-8,0.053980444
1690153982387.3745,0.9965081,-0.00000355259,0.0000036244005,0.083496064,-3.732034,20.970766,-0.00014522042,-10.710437,55.616863,-0.0004167609,-0.0000026798357,-1.0549087e-8,0.06928306
1690153982434.4553,0.99650705,-0.000003553126,0.0000036243953,0.08350869,-3.9150786,21.921879,-0.00015234298,-10.98323,57.06992,-0.00042737555,-0.0000030888061,-8.326759e-9,0.07970949
1690153982449.0142,0.9965067,-0.000003553301,0.000003624394,0.083512776,-3.930581,22.002424,-0.00015294622,-11.005655,57.190727,-0.0004282487,-0.000003237404,-1.5458449e-8,0.08244076
1690153982459.5498,0.9965055,-0.0000035539042,0.0000036243882,0.08352703,-4.118585,22.979969,-0.00016026176,-11.280254,58.652687,-0.00043893303,-0.000003801022,-7.716989e-9,0.09800884
1690153982469.9756,0.996504,-0.0000035546477,0.0000036243819,0.08354447,-4.288264,23.862679,-0.00016686422,-11.522729,59.945034,-0.0004483679,-0.0000044061117,-4.3538884e-9,0.11358667
1690153982490.2397,0.99650276,-0.0000035552748,0.0000036243764,0.08355916,-4.413793,24.515953,-0.00017174878,-11.699364,60.886234,-0.0004552409,-0.000005011252,-4.720397e-9,0.12921594
1690153982503.4126,0.9965017,-0.00000355586,0.0000036243723,0.08357306,-4.5337567,25.140476,-0.00017641675,-11.866263,61.77551,-0.00046173518,-0.0000054759985,-5.847905e-9,0.14103538
1690153982534.7822,0.9964997,-0.000003556831,0.000003624364,0.08359596,-4.736128,26.194582,-0.00018429133,-12.142908,63.24997,-0.0004724996,-0.0000058309115,-6.4549512e-9,0.15021461
1690153982536.6484,0.99649787,-0.0000035577646,0.000003624356,0.08361787,-4.8934364,27.014278,-0.00019041245,-12.353876,64.37422,-0.00048070852,-0.0000064921346,-8.172123e-9,0.16724515
1690153982553.553,0.9964955,-0.0000035589626,0.0000036243464,0.083646186,-5.1039505,28.111776,-0.00019860387,-12.63187,65.85583,-0.0004915255,-0.0000070037286,-7.664437e-9,0.18027799
1690153982576.8762,0.9964949,-0.000003559256,0.000003624344,0.08365298,-5.1267796,28.230787,-0.00019949218,-12.661043,66.01246,-0.00049266085,-0.0000073154274,-9.957842e-9,0.18791758
1690153982586.8525,0.99649245,-0.0000035604924,0.0000036243332,0.0836821,-5.342451,29.355774,-0.00020788428,-12.9403,67.499245,-0.0005035268,-0.000007795359,-1.2336506e-8,0.20047246
1690153982613.6855,0.9964895,-0.0000035619844,0.0000036243207,0.08371721,-5.562747,30.505394,-0.00021645633,-13.219625,68.98779,-0.0005143956,-0.000008422138,-1.2087281e-8,0.21659906
1690153982624.0671,0.9964875,-0.0000035630164,0.000003624312,0.08374144,-5.6937294,31.189095,-0.00022155304,-13.383197,69.859055,-0.0005207602,-0.000009182744,-1.2611084e-8,0.23619889
1690153982652.0356,0.9964844,-0.0000035645894,0.0000036242996,0.083778515,-5.9214606,32.378326,-0.00023041439,-13.664526,71.35769,-0.0005317069,-0.000009571459,-1.0071375e-8,0.24620236
1690153982654.4507,0.996482,-0.000003565785,0.0000036242898,0.083806604,-6.0654655,33.13051,-0.00023601782,-13.839466,72.28941,-0.00053851405,-0.0000103111115,-1.1670622e-8,0.26504794
1690153982670.1448,0.9964785,-0.0000035675553,0.0000036242757,0.08384834,-6.300823,34.36036,-0.00024517594,-14.122251,73.79538,-0.0005495174,-0.000010719439,-1.2091562e-8,0.27554992
1690153982688.706,0.99647766,-0.000003567976,0.0000036242723,0.08385824,-6.3327622,34.52725,-0.00024641873,-14.159421,73.99415,-0.0005509634,-0.000011242682,-8.415866e-9,0.2895991
1690153982704.1292,0.9964742,-0.0000035697178,0.000003624258,0.08389917,-6.560865,35.719666,-0.00025529452,-14.428742,75.42689,-0.00056144316,-0.000011576241,-1.1026817e-8,0.29767007
1690153982720.0735,0.99647003,-0.000003571822,0.0000036242407,0.08394848,-6.8060436,37.001785,-0.0002648348,-14.712589,76.93778,-0.0005724878,-0.000012171494,-1.0585719e-8,0.31297755
1690153982740.153,0.99646586,-0.0000035739197,0.000003624224,0.08399778,-7.0391474,38.221134,-0.0002739052,-14.977995,78.34971,-0.0005828149,-0.000012918932,-1.0676738e-8,0.33217964
1690153982753.8198,0.9964616,-0.0000035761493,0.000003624206,0.08405001,-7.2794595,39.47855,-0.0002832561,-15.246618,79.77766,-0.00059326726,-0.000013604421,-1.2466231e-8,0.3497292
1690153982770.3,0.9964567,-0.0000035785956,0.0000036241856,0.084107354,-7.538265,40.833103,-0.00029332656,-15.530314,81.28446,-0.00060430606,-0.000014277715,-1.3866939e-8,0.3671892
1690153982800.5386,0.99645233,-0.0000035807748,0.0000036241686,0.08415867,-7.7547445,41.966354,-0.0003017501,-15.763483,82.52181,-0.000613379,-0.000015081358,-1.6055216e-8,0.38754582
1690153982803.4792,0.9964472,-0.0000035833696,0.0000036241474,0.08421952,-8.017642,43.342922,-0.0003119798,-16.042114,83.99925,-0.0006242207,-0.000015636007,-1.2545759e-8,0.40197182
1690153982820.5332,0.99644166,-0.0000035861444,0.0000036241263,0.08428492,-8.2896805,44.76763,-0.00032256517,-16.324549,85.49531,-0.0006352106,-0.000016355687,-1.30389335e-8,0.42024565
1690153982839.8699,0.9964403,-0.0000035868197,0.0000036241215,0.08430088,-8.334428,45.001972,-0.00032430634,-16.369509,85.73402,-0.00063696026,-0.00001710079,-1.6139014e-8,0.4389259
1690153982853.632,0.9964349,-0.000003589574,0.0000036241,0.08436549,-8.611975,46.455837,-0.00033510607,-16.652864,87.23213,-0.0006479856,-0.000017279463,-1.1486995e-8,0.44411856
1690153982878.8909,0.9964288,-0.0000035926441,0.0000036240756,0.08443743,-8.894178,47.934303,-0.000346087,-16.934649,88.72159,-0.00065894984,-0.00001794508,-5.8495475e-9,0.4616337
1690153982889.3855,0.9964235,-0.0000035953158,0.0000036240547,0.08450007,-9.128811,49.16367,-0.00035521688,-17.165161,89.93857,-0.0006679194,-0.000018783065,-7.0524906e-9,0.48303232
1690153982913.6855,0.9964171,-0.0000035985229,0.0000036240297,0.08457533,-9.419558,50.687218,-0.00036653024,-17.446508,91.422424,-0.00067886687,-0.000019338819,-7.069947e-9,0.49743015
1690153982920.2437,0.99641263,-0.0000036007468,0.000003624013,0.084627755,-9.6005335,51.635593,-0.00037357226,-17.618828,92.33032,-0.0006855721,-0.000020244697,-7.4365114e-9,0.5205494
1690153982952.32,0.9964059,-0.0000036041163,0.0000036239862,0.08470661,-9.89885,53.19901,-0.00038518017,-17.90001,93.81038,-0.0006965129,-0.000020571957,-2.7833766e-9,0.52924985
1690153982962.6836,0.9964027,-0.0000036057181,0.0000036239746,0.08474434,-10.017153,53.819004,-0.0003897835,-18.009287,94.38514,-0.0007007653,-0.000021558028,-4.4892023e-9,0.5542644
1690153982970.4568,0.99639577,-0.0000036091994,0.0000036239474,0.084825955,-10.321982,55.41665,-0.00040164482,-18.290176,95.86083,-0.0007116948,-0.000021642754,-5.70918e-9,0.5567049
1690153982987.0466,0.9963907,-0.0000036117372,0.000003623928,0.084885605,-10.519877,56.453835,-0.00040934517,-18.469189,96.800446,-0.0007186605,-0.00002253646,-8.1524645e-9,0.579433
1690153983016.1692,0.99638724,-0.000003613469,0.0000036239148,0.084926315,-10.656618,57.170513,-0.00041466593,-18.59196,97.444,-0.00072343776,-0.000023222054,-7.629047e-9,0.5970399
1690153983037.3174,0.9963798,-0.0000036171857,0.0000036238853,0.085013434,-10.96958,58.8108,-0.00042684368,-18.87112,98.90716,-0.00073430024,-0.000023221277,-9.803778e-9,0.5970384
1690153983054.054,0.9963717,-0.0000036212318,0.0000036238546,0.0851086,-11.288698,60.48331,-0.000439261,-19.14982,100.36594,-0.000745145,-0.000023883898,-1.0635483e-8,0.6135926
1690153983082.5908,0.9963633,-0.000003625403,0.0000036238223,0.08520652,-11.612453,62.180054,-0.00045185874,-19.42812,101.82031,-0.0007559738,-0.000024633737,-8.362598e-9,0.6332221
1690153983093.6487,0.99635464,-0.0000036296851,0.0000036237905,0.085307404,-11.940844,63.90098,-0.00046463683,-19.70622,103.27168,-0.00076679524,-0.0000253888,-1.0288774e-8,0.6524341
1690153983103.991,0.99634576,-0.0000036340953,0.0000036237564,0.0854109,-12.273859,65.64602,-0.0004775949,-19.983816,104.71816,-0.00077759667,-0.00002613091,-8.533336e-9,0.671755
1690153983120.625,0.9963393,-0.0000036372794,0.0000036237323,0.08548578,-12.5020275,66.84156,-0.00048647323,-20.171408,105.69415,-0.00078489614,-0.000027120783,-9.452537e-9,0.69713545
1690153983139.8938,0.99633366,-0.000003640076,0.0000036237118,0.08555177,-12.70702,67.915596,-0.00049444975,-20.338936,106.564766,-0.000791415,-0.000027755857,-1.0574179e-8,0.7133491
1690153983153.9854,0.99632466,-0.0000036445751,0.0000036236781,0.085657634,-13.048873,69.706505,-0.0005077517,-20.615837,108.00299,-0.0008021896,-0.000027893188,-1.07772316e-8,0.71684253
1690153983176.3567,0.99631494,-0.0000036493661,0.0000036236402,0.085769966,-13.397038,71.53023,-0.0005212993,-20.892923,109.439926,-0.0008129713,-0.000028574066,-1.1298302e-8,0.73435557
1690153983187.296,0.9963065,-0.0000036535414,0.000003623608,0.08586818,-13.6905155,73.06728,-0.00053271884,-21.123346,110.632835,-0.00082193705,-0.000029425315,-1.1150144e-8,0.75669175
1690153983214.4248,0.9962964,-0.0000036584838,0.0000036235708,0.08598476,-14.0471525,74.93484,-0.0005465961,-21.400333,112.064896,-0.00083271536,-0.000029937077,-1.7019063e-8,0.7692233
1690153983224.9502,0.9962894,-0.0000036619742,0.0000036235429,0.086066596,-14.280668,76.1575,-0.00055568246,-21.579018,112.98722,-0.00083966804,-0.00003090489,-1.6255083e-8,0.7941723
1690153983237.4329,0.99627906,-0.000003667041,0.0000036235047,0.08618588,-14.644913,78.0643,-0.0005698557,-21.856,114.41518,-0.0008504457,-0.00003114183,-1.03204165e-8,0.8004364
1690153983253.9795,0.99627185,-0.0000036705767,0.0000036234778,0.08626915,-14.880428,79.29703,-0.0005790199,-22.032198,115.32203,-0.00085730146,-0.00003213582,-8.372083e-9,0.8263644
1690153983280.1484,0.9962639,-0.0000036744552,0.0000036234496,0.08636086,-15.15018,80.70874,-0.0005895163,-22.23325,116.3556,-0.00086512516,-0.00003260804,-1.5242549e-8,0.8375339
1690153983291.0198,0.9962531,-0.000003679777,0.0000036234082,0.08648576,-15.52354,82.662224,-0.0006040442,-22.508604,117.76971,-0.0008758389,-0.000032844655,-9.932716e-9,0.8443512
1690153983304.2014,0.9962416,-0.0000036853912,0.0000036233646,0.08661767,-15.90322,84.648285,-0.00061881804,-22.784082,119.181854,-0.0008865581,-0.00003348749,-1.199223e-8,0.8605008
1690153983320.8555,0.99623376,-0.0000036892384,0.000003623335,0.08670804,-16.149817,85.93798,-0.00062841346,-22.960575,120.084755,-0.0008934252,-0.000034473393,-7.571382e-9,0.886482
1690153983350.3628,0.9962246,-0.0000036937256,0.0000036233002,0.086813465,-16.453756,87.52725,-0.00064024015,-23.177584,121.19356,-0.00090186927,-0.00003490731,-8.869083e-9,0.89746135
1690153983360.7917,0.9962127,-0.0000036994709,0.0000036232573,0.08694904,-16.844612,89.57042,-0.0006554489,-23.453493,122.601814,-0.0009126056,-0.000035223995,-1.6310574e-8,0.90458363
1690153983370.6602,0.9962005,-0.0000037054533,0.000003623209,0.08708905,-17.240026,91.636795,-0.0006708349,-23.7283,124.00152,-0.0009232981,-0.000035832276,-9.258273e-9,0.92105645
1690153983387.4485,0.9961921,-0.0000037094985,0.0000036231804,0.08718494,-17.495586,92.97204,-0.0006807791,-23.90353,124.892136,-0.0009301169,-0.00003688562,-1.5513633e-8,0.94732815
1690153983408.7634,0.99618477,-0.0000037130628,0.0000036231522,0.08726853,-17.725296,94.172005,-0.0006897174,-24.060627,125.68943,-0.0009362292,-0.000037469337,-1.0073204e-8,0.96311593
1690153983421.0066,0.9961724,-0.0000037190932,0.0000036231027,0.087409616,-18.130888,96.290054,-0.00070549943,-24.336636,127.08958,-0.0009469688,-0.000037362806,-1.2179504e-8,0.96040165
1690153983444.1562,0.9961594,-0.0000037253942,0.0000036230565,0.087558605,-18.541014,98.431046,-0.00072145794,-24.611137,128.47922,-0.00095765037,-0.000037973226,-2.1170493e-8,0.9749873
1690153983453.9277,0.9961493,-0.0000037303016,0.0000036230158,0.08767323,-18.84672,100.02651,-0.0007333534,-24.813213,129.49988,-0.000965513,-0.00003887647,-1.8964732e-8,0.9986825
1690153983481.1653,0.9961361,-0.0000037366667,0.0000036229653,0.08782274,-19.264822,102.20777,-0.00074962224,-25.088158,130.8866,-0.00097621104,-0.00003912262,-1.7326554e-8,1.0054283
1690153983491.7349,0.9961279,-0.000003740598,0.0000036229349,0.08791539,-19.504234,103.45651,-0.0007589381,-25.242935,131.66563,-0.0009822338,-0.000040162515,-2.0132152e-8,1.0318006
1690153983504.1228,0.99611443,-0.000003747088,0.000003622883,0.08806784,-19.929514,105.67388,-0.00077548623,-25.518002,133.04851,-0.0009929369,-0.000040100495,-2.2368425e-8,1.029794
1690153983520.855,0.9961054,-0.0000037514696,0.0000036228466,0.0881703,-20.196253,107.06427,-0.00078586536,-25.68755,133.89902,-0.0009995336,-0.000041057538,-1.5606185e-8,1.0554644
1690153983549.782,0.996095,-0.0000037564394,0.0000036228075,0.08828723,-20.51569,108.72886,-0.0007982951,-25.890522,134.91582,-0.001007432,-0.000041424402,-2.2557254e-8,1.0638164
1690153983560.236,0.99608094,-0.000003763193,0.0000036227539,0.08844598,-20.95174,111.00017,-0.0008152623,-26.165161,136.29012,-0.0010181185,-0.000041477688,-2.4238975e-8,1.0651916
1690153983571.0269,0.99606645,-0.0000037701489,0.000003622697,0.08860918,-21.392317,113.29406,-0.0008324057,-26.438549,137.65479,-0.0010287559,-0.000042014464,-2.0072012e-8,1.0797898
1690153983587.6055,0.9960567,-0.0000037748673,0.000003622657,0.08871936,-21.676964,114.775665,-0.0008434817,-26.612816,138.52252,-0.0010355366,-0.00004299473,-1.7654832e-8,1.1051753
1690153983606.4553,0.9960473,-0.0000037793088,0.000003622623,0.0888241,-21.953869,116.216576,-0.00085425645,-26.782234,139.3649,-0.0010421294,-0.000043505668,-1.9404114e-8,1.1178067
1690153983620.888,0.99603283,-0.0000037862653,0.000003622563,0.08898648,-22.401525,118.54495,-0.00087167526,-27.054935,140.71983,-0.00105274,-0.00004331793,-1.2997382e-8,1.1138128
1690153983647.663,0.99601763,-0.0000037934963,0.0000036225047,0.08915634,-22.85693,120.9125,-0.0008893956,-27.328255,142.0747,-0.0010633757,-0.000043789896,-1.8959772e-8,1.1254548
1690153983654.281,0.9960042,-0.0000037998268,0.0000036224565,0.089305975,-23.247486,122.94209,-0.0009045927,-27.560059,143.22105,-0.0010723961,-0.000044481596,-2.5829165e-8,1.1424537
1690153983680.6165,0.9959888,-0.0000038071591,0.0000036223955,0.089477815,-23.711327,125.351326,-0.0009226413,-27.83347,144.5704,-0.0010830344,-0.00004477542,-2.2001336e-8,1.1506803
1690153983691.3206,0.99598217,-0.0000038102899,0.0000036223705,0.08955146,-23.89006,126.279495,-0.000929596,-27.936258,145.07634,-0.001087034,-0.000045941662,-1.8968592e-8,1.1809733
1690153983704.3042,0.99596685,-0.000003817542,0.0000036223123,0.089722134,-24.360231,128.7199,-0.000947891,-28.210869,146.42738,-0.0010977199,-0.000045498564,-2.4674245e-8,1.1688428
1690153983733.0232,0.99595624,-0.0000038225458,0.0000036222705,0.08983946,-24.66006,130.27562,-0.00095955766,-28.382599,147.27022,-0.0011044017,-0.00004634098,-1.8147038e-8,1.1913348
1690153983743.5469,0.9959439,-0.000003828372,0.000003622223,0.089976266,-25.028341,132.18575,-0.0009738879,-28.593746,148.30498,-0.0011126181,-0.00004657769,-2.147262e-8,1.1968685
1690153983754.5894,0.99592775,-0.0000038359476,0.0000036221631,0.09015474,-25.509415,134.67955,-0.0009926071,-28.866953,149.64185,-0.0011232491,-0.000046560184,-2.1506155e-8,1.1963161
1690153983771.0825,0.9959168,-0.000003841099,0.000003622122,0.09027595,-25.820534,136.29176,-0.0010047131,-29.040817,150.4902,-0.0011300148,-0.00004743015,-2.5756243e-8,1.2181789
1690153983794.6384,0.99590605,-0.0000038461253,0.0000036220822,0.09039435,-26.135672,137.92422,-0.0010169756,-29.217024,151.34856,-0.0011368708,-0.000047812635,-2.0023162e-8,1.2288582
1690153983807.418,0.99588984,-0.0000038537564,0.0000036220176,0.09057294,-26.623032,140.44742,-0.0010359394,-29.488476,152.6699,-0.0011474332,-0.000047539757,-1.6343174e-8,1.2222474
1690153983828.8928,0.9958729,-0.0000038616904,0.0000036219515,0.090758905,-27.11897,143.01357,-0.001055237,-29.760727,153.99165,-0.0011580267,-0.000047844933,-1.2525271e-8,1.2305121
1690153983837.8394,0.9958595,-0.000003867934,0.0000036219,0.09090554,-27.504513,145.00757,-0.0010702389,-29.96999,155.00478,-0.0011661694,-0.000048538997,-7.0081096e-9,1.2489364
1690153983871.5796,0.9958426,-0.000003875792,0.0000036218396,0.09109106,-28.008514,147.61272,-0.0010898502,-30.242826,156.32378,-0.0011767872,-0.000048589347,-2.1099218e-8,1.2478924
1690153983887.9539,0.9958333,-0.0000038801,0.0000036218055,0.09119244,-28.262318,148.92421,-0.0010997261,-30.377455,156.97261,-0.001182026,-0.00004957944,-2.6436375e-8,1.2726735
1690153983904.456,0.99581635,-0.0000038879734,0.0000036217402,0.0913771,-28.773146,151.56227,-0.001119603,-30.65085,158.28925,-0.0011926632,-0.000049114842,-1.19388375e-8,1.2627021
1690153983921.034,0.9957988,-0.000003896101,0.0000036216743,0.09156822,-29.287556,154.2172,-0.0011396194,-30.9221,159.5925,-0.0012032174,-0.00004931151,-5.6161777e-9,1.2686918
1690153983944.3435,0.9957815,-0.0000039041024,0.0000036216095,0.09175628,-29.795671,156.83803,-0.0011593909,-31.187561,160.86458,-0.0012135478,-0.000049714963,-1.4263301e-8,1.2774469
1690153983955.0366,0.9957638,-0.000003912334,0.000003621538,0.09194849,-30.317007,159.52536,-0.0011796767,-31.457745,162.15631,-0.0012240604,-0.000049910188,-7.126723e-9,1.2837127
1690153983971.1208,0.9957458,-0.000003920595,0.0000036214706,0.09214269,-30.845749,162.24913,-0.0012002507,-31.729223,163.451,-0.0012346244,-0.000050162485,-9.497677e-9,1.2899685
1690153983988.0676,0.99573386,-0.0000039260713,0.0000036214262,0.09227154,-31.188347,164.01326,-0.0012135817,-31.902798,164.27626,-0.0012413788,-0.00005095755,-1.1432161e-8,1.310008
1690153984006.0002,0.99571675,-0.0000039339634,0.0000036213587,0.09245621,-31.705027,166.6721,-0.0012336863,-32.16574,165.5254,-0.0012516102,-0.00005069359,-5.438197e-9,1.3039939
1690153984021.2654,0.9956986,-0.0000039423066,0.0000036212884,0.09265177,-32.245575,169.45193,-0.0012547198,-32.437542,166.81364,-0.0012621866,-0.000050762646,-5.7751404e-9,1.3059502
1690153984044.7263,0.9956802,-0.000003950685,0.0000036212202,0.09284899,-32.79064,172.25311,-0.001275929,-32.709064,168.09718,-0.0012727523,-0.000050939114,-6.8517436e-9,1.3105396
1690153984054.6572,0.9956635,-0.0000039582987,0.0000036211557,0.09302758,-33.286076,174.79765,-0.0012952071,-32.953667,169.25035,-0.0012822708,-0.00005133182,-1.0798604e-8,1.3201448
1690153984078.1135,0.9956451,-0.0000039666857,0.0000036210843,0.093224354,-33.839764,177.63945,-0.0013167518,-33.2254,170.52896,-0.0012928443,-0.000051242754,-7.3048363e-9,1.3185713
1690153984088.3835,0.99563384,-0.0000039717747,0.000003621044,0.093344495,-34.161915,179.29222,-0.0013292872,-33.380905,171.25807,-0.0012988956,-0.000052053743,-4.8194018e-9,1.3395721
1690153984104.905,0.9956156,-0.0000039800457,0.0000036209751,0.09353901,-34.722782,182.1677,-0.0013511113,-33.6538,172.5374,-0.0013095147,-0.000051496256,-1.1812085e-8,1.3247151
1690153984121.484,0.99560326,-0.000003985625,0.00000362093,0.09367062,-35.083916,184.01833,-0.0013651636,-33.82623,173.34305,-0.0013162249,-0.00005210494,-1.9396735e-8,1.3395067
1690153984139.593,0.99558526,-0.000003993753,0.0000036208608,0.09386143,-35.638752,186.85962,-0.001386753,-34.092506,174.58607,-0.0013265861,-0.000051715455,-1.42712775e-8,1.3298512
1690153984154.911,0.9955667,-0.0000040021305,0.0000036207894,0.094058104,-36.20415,189.75294,-0.0014087535,-34.360573,175.83429,-0.0013370173,-0.00005174322,-1.5471894e-8,1.330504
1690153984178.6746,0.99554783,-0.000004010633,0.0000036207155,0.09425735,-36.78126,192.70407,-0.0014312096,-34.631863,177.09436,-0.0013475736,-0.000051713825,-9.063717e-9,1.3303593
1690153984187.87,0.9955303,-0.000004018509,0.000003620649,0.094442375,-37.31962,195.45515,-0.0014521579,-34.882786,178.2567,-0.0013573376,-0.000051884872,-5.109662e-9,1.3350499
1690153984213.0107,0.9955115,-0.000004026958,0.000003620577,0.09464062,-37.905445,198.44661,-0.0014749531,-35.154152,179.51111,-0.0013678976,-0.00005177843,-9.6620365e-9,1.3316053
1690153984223.5676,0.9955007,-0.000004031762,0.0000036205377,0.09475383,-38.22414,200.07333,-0.001487354,-35.299053,180.17847,-0.0013735361,-0.00005241991,-6.9406294e-9,1.3484553
1690153984238.3967,0.99548215,-0.0000040400632,0.000003620467,0.094948575,-38.81698,203.0971,-0.0015104222,-35.57183,181.4349,-0.0013841505,-0.000051764728,1.3651581e-10,1.332
1690153984254.9219,0.99547,-0.000004045466,0.000003620423,0.09507589,-39.183914,204.9678,-0.0015247002,-35.73717,182.1938,-0.001390585,-0.00005226174,-7.8597315e-9,1.3436927
1690153984273.9382,0.9954538,-0.0000040526606,0.0000036203644,0.09524543,-39.703358,207.61427,-0.0015449125,-35.972885,183.27498,-0.0013997576,-0.000051915933,-1.3238413e-8,1.3342127
1690153984288.6292,0.99543524,-0.0000040609316,0.0000036202932,0.09543939,-40.300575,210.65468,-0.0015681509,-36.24146,184.50429,-0.0014102076,-0.000051631723,-3.6708145e-9,1.3283657
1690153984305.0403,0.9954162,-0.000004069372,0.0000036202218,0.0956377,-40.90902,213.7499,-0.0015918264,-36.512314,185.74098,-0.0014207483,-0.00005147735,-1.557081e-8,1.3226991
1690153984321.743,0.9953993,-0.0000040768196,0.0000036201611,0.09581331,-41.451885,216.5096,-0.0016129501,-36.751842,186.83136,-0.0014300686,-0.00005161424,-1.0465312e-8,1.3266976
1690153984347.4236,0.9953809,-0.000004084992,0.0000036200888,0.096004516,-42.05915,219.59431,-0.0016365796,-37.01821,188.04164,-0.0014404336,-0.00005131781,-8.004663e-9,1.3194789
1690153984359.137,0.9953619,-0.0000040933487,0.0000036200186,0.09620105,-42.677544,222.73312,-0.0016606422,-37.280083,189.22444,-0.0014506243,-0.00005105945,-1.3654105e-8,1.3121332
1690153984371.4902,0.995343,-0.0000041016733,0.0000036199472,0.09639647,-43.30298,225.90515,-0.0016849787,-37.531742,190.351,-0.0014604167,-0.00005090128,-6.2906627e-9,1.3089731
1690153984388.2202,0.9953289,-0.000004107851,0.000003619896,0.09654206,-43.766186,228.25304,-0.0017030028,-37.711987,191.15288,-0.0014674317,-0.000051122763,-2.2872024e-8,1.3126543
1690153984407.516,0.99531543,-0.0000041137187,0.0000036198496,0.09668088,-44.21604,230.53194,-0.0017205074,-37.883583,191.91272,-0.0014741082,-0.000051044142,-8.16459e-9,1.3121706
1690153984422.514,0.995297,-0.000004121775,0.0000036197803,0.09687015,-44.84837,233.73267,-0.0017451124,-38.117855,192.94478,-0.0014832247,-0.000050429964,-1.3126624e-8,1.295954
1690153984438.2378,0.9952784,-0.000004129944,0.0000036197075,0.09706135,-45.487328,236.96431,-0.0017699751,-38.34319,193.92825,-0.001491992,-0.000050116003,-3.1768588e-10,1.2896444
1690153984457.9539,0.9952616,-0.000004137196,0.000003619651,0.097233325,-46.060593,239.8616,-0.0017922816,-38.537766,194.77092,-0.0014995646,-0.000050015624,-1.6183074e-8,1.2850622
1690153984471.7615,0.9952444,-0.0000041446583,0.0000036195897,0.09740946,-46.660534,242.89142,-0.0018156263,-38.734703,195.61752,-0.0015072282,-0.00004975475,-2.2770406e-8,1.2772837
1690153984497.884,0.995226,-0.0000041526837,0.000003619517,0.097597055,-47.309414,246.1657,-0.0018408751,-38.937954,196.48267,-0.0015151363,-0.000049310554,-8.890985e-9,1.2675827
1690153984504.8853,0.9952105,-0.00000415933,0.0000036194667,0.09775499,-47.85085,248.89594,-0.0018619433,-39.100548,197.16824,-0.001521464,-0.000049258266,-1.85237e-8,1.2649459
1690153984521.645,0.9951922,-0.000004167256,0.0000036193971,0.09794096,-48.505547,252.19458,-0.0018874186,-39.286026,197.93994,-0.0015286804,-0.00004869912,-1.0350844e-8,1.2517644
1690153984539.7905,0.9951843,-0.000004170702,0.000003619366,0.09802159,-48.779327,253.57353,-0.0018980717,-39.359055,198.2395,-0.0015315217,-0.000049170907,-5.6778813e-9,1.2645415
1690153984554.9783,0.9951666,-0.0000041783005,0.0000036193023,0.09820087,-49.43484,256.87244,-0.0019235788,-39.53486,198.9606,-0.0015383636,-0.000048252685,-1.9417245e-8,1.2392501
1690153984577.1863,0.9951486,-0.0000041860667,0.0000036192341,0.09838307,-50.09642,260.1991,-0.0019493218,-39.700935,199.63068,-0.0015448252,-0.00004781371,-6.1762853e-9,1.2293776
1690153984588.547,0.9951322,-0.0000041930975,0.000003619176,0.098548874,-50.70109,263.2373,-0.0019728506,-39.845104,200.20418,-0.0015504357,-0.000047523663,-1.538022e-8,1.220601
1690153984607.7856,0.9951146,-0.0000042007346,0.0000036191027,0.098726496,-51.367573,266.5833,-0.0019987845,-39.994022,200.78532,-0.0015562291,-0.000046933917,7.3891897e-9,1.2081367
1690153984621.833,0.99510276,-0.000004205773,0.0000036190636,0.09884604,-51.806362,268.785,-0.0020158584,-40.086517,201.13966,-0.0015598293,-0.000047122554,-8.394398e-9,1.2108691
1690153984638.5334,0.9950855,-0.00000421312,0.0000036190045,0.0990198,-52.476692,272.1457,-0.002041942,-40.222603,201.65459,-0.0015651239,-0.0000462266,2.7351719e-9,1.189265
1690153984665.4202,0.9950705,-0.000004219486,0.0000036189513,0.09916987,-53.042175,274.97873,-0.0020639459,-40.32958,202.04948,-0.001569288,-0.000046057205,-1.8316465e-8,1.1821988
1690153984676.0054,0.9950536,-0.000004226732,0.0000036188876,0.099339925,-53.711586,278.32968,-0.0020899938,-40.44977,202.4843,-0.0015739641,-0.00004536757,-9.235571e-9,1.1656944
1690153984698.6887,0.9950364,-0.0000042340207,0.0000036188242,0.0995112,-54.38744,281.71008,-0.0021162922,-40.55752,202.85518,-0.0015781563,-0.000044854845,-1.0151384e-9,1.1534997
1690153984705.1082,0.9950253,-0.00000423872,0.0000036187878,0.09962277,-54.819458,283.86975,-0.0021331026,-40.621037,203.06555,-0.0015806282,-0.000044787583,-7.4089415e-9,1.1509204
1690153984739.7795,0.9950087,-0.0000042457523,0.0000036187257,0.09978787,-55.497993,287.25897,-0.0021595056,-40.714817,203.36554,-0.0015842771,-0.00004405713,-2.7835851e-9,1.1326388
1690153984755.2449,0.9950023,-0.0000042485544,0.000003618693,0.099851534,-55.753086,288.53275,-0.0021694317,-40.74529,203.45468,-0.0015854613,-0.00004427503,1.8215312e-8,1.1408916
1690153984778.4795,0.994986,-0.000004255417,0.00000361864,0.10001449,-56.433414,291.92703,-0.0021959043,-40.82055,203.66234,-0.0015883914,-0.00004333899,-3.4951346e-9,1.1139593
1690153984788.7554,0.9949708,-0.0000042618353,0.0000036185854,0.10016555,-57.05333,295.01764,-0.0022200262,-40.879593,203.80466,-0.001590689,-0.000042775377,-4.786928e-9,1.0993294
1690153984807.673,0.9949548,-0.000004268618,0.0000036185218,0.10032386,-57.735477,298.4157,-0.0022465696,-40.934284,203.9099,-0.0015928168,-0.00004223422,-7.9683593e-10,1.0859447
1690153984822.1196,0.99494463,-0.0000042728752,0.000003618489,0.100425035,-58.16228,300.5407,-0.0022631772,-40.963055,203.94896,-0.0015939366,-0.00004219024,-6.554572e-9,1.0840704
1690153984858.9443,0.99492884,-0.0000042795227,0.0000036184308,0.10058123,-58.845657,303.94037,-0.0022897683,-41.005085,203.99174,-0.0015955716,-0.000041197323,-2.0918597e-10,1.0593568
1690153984872.1375,0.99491537,-0.0000042852375,0.0000036183753,0.10071419,-59.436275,306.87653,-0.00231275,-41.0333,203.98872,-0.0015966697,-0.000040784864,-4.700362e-9,1.0482606
1690153984888.831,0.99490005,-0.000004291608,0.000003618325,0.100865364,-60.120354,310.27454,-0.0023393687,-41.04952,203.90448,-0.0015973015,-0.000040170853,-1.36129e-8,1.031361
1690153984905.4565,0.9948878,-0.0000042967704,0.000003618276,0.10098574,-60.670372,313.00488,-0.0023607707,-41.055744,203.80357,-0.0015975425,-0.00003965633,2.3361688e-9,1.0201225
1690153984931.4553,0.99487317,-0.000004302875,0.0000036182264,0.101130344,-61.34639,316.358,-0.0023870757,-41.05775,203.65172,-0.001597621,-0.00003900161,-2.4372435e-9,1.0026923
1690153984941.8088,0.99485844,-0.0000043090226,0.0000036181739,0.10127522,-62.027412,319.73328,-0.0024135753,-41.058975,203.49504,-0.0015976679,-0.00003830004,7.345924e-9,0.98586696
1690153984955.5771,0.9948441,-0.00000431503,0.00000361812,0.10141614,-62.71164,323.1217,-0.0024401997,-41.060104,203.33705,-0.0015977125,-0.000037781403,-7.265331e-10,0.9715052
1690153984975.4082,0.9948351,-0.000004318898,0.0000036180745,0.101504244,-63.13228,325.20377,-0.0024565675,-41.05863,203.2294,-0.001597654,-0.000037571568,1.8117184e-8,0.9684489
1690153984999.4365,0.9948235,-0.0000043236114,0.0000036180438,0.10161773,-63.69054,327.9652,-0.0024782903,-41.060318,203.10437,-0.0015977214,-0.000037069305,-8.1783496e-9,0.9522489
1690153985012.0266,0.99480945,-0.000004329517,0.0000036179867,0.10175531,-64.37485,331.3474,-0.0025049178,-41.062622,202.95207,-0.0015978096,-0.000036371934,1.1674124e-8,0.9367863
1690153985022.2227,0.9947956,-0.000004335302,0.0000036179324,0.10189051,-65.059135,334.7268,-0.0025315445,-41.063858,202.7946,-0.0015978582,-0.000035924175,5.569339e-9,0.92450345
1690153985051.7705,0.99478537,-0.000004339582,0.0000036178917,0.10199043,-65.57711,337.2833,-0.0025516998,-41.06335,202.66832,-0.0015978381,-0.000035728037,9.191078e-9,0.9199093
1690153985062.78,0.99477696,-0.000004343058,0.0000036178628,0.10207262,-65.99005,339.32037,-0.0025677679,-41.06291,202.56763,-0.0015978205,-0.000035470577,1.4155819e-8,0.913903
1690153985072.1616,0.9947636,-0.0000043485907,0.0000036178142,0.1022028,-66.674446,342.69385,-0.0025943988,-41.066227,202.42043,-0.0015979512,-0.00003485893,-6.9055948e-9,0.8955703
1690153985090.4438,0.9947548,-0.0000043522473,0.0000036177803,0.102288455,-67.12143,344.89594,-0.0026117915,-41.065266,202.30891,-0.0015979119,-0.000034681234,1.8215884e-8,0.8941078
1690153985105.5974,0.99474716,-0.0000043552636,0.000003617765,0.10236232,-67.50834,346.8012,-0.002626847,-41.06502,202.21562,-0.0015979062,-0.0000346045,-3.8733397e-8,0.88509285
1690153985127.682,0.99473405,-0.0000043606456,0.0000036177214,0.10248988,-68.19279,350.16885,-0.0026534798,-41.06873,202.06976,-0.0015980463,-0.000033936776,2.328694e-8,0.8755332
1690153985138.9438,0.9947221,-0.0000043655027,0.000003617685,0.102605715,-68.80613,353.1845,-0.0026773459,-41.06935,201.92651,-0.0015980724,-0.00003368164,-3.2885275e-9,0.86567736
1690153985162.071,0.99470913,-0.000004370818,0.0000036176393,0.10273114,-69.49056,356.54694,-0.002703978,-41.07105,201.77109,-0.0015981374,-0.000033353368,1.1784991e-8,0.8590874
1690153985172.6082,0.9947005,-0.0000043742825,0.0000036176182,0.102815054,-69.9397,358.75226,-0.0027214545,-41.06987,201.65843,-0.0015980941,-0.000033306118,-2.5295822e-8,0.853308
1690153985202.0083,0.9946879,-0.0000043794657,0.0000036175713,0.10293673,-70.6242,362.1105,-0.0027480894,-41.072773,201.50887,-0.0015982045,-0.000032795175,1.4051161e-8,0.8450311
1690153985212.492,0.9946798,-0.0000043827167,0.0000036175481,0.10301468,-71.04746,364.18607,-0.0027645591,-41.071507,201.40202,-0.0015981568,-0.000032702752,-8.918892e-9,0.8398291
1690153985222.4092,0.9946673,-0.00000438784,0.0000036175034,0.10313531,-71.731995,367.5401,-0.0027911954,-41.074566,201.25327,-0.0015982756,-0.000032354637,-6.087071e-9,0.83120966
1690153985244.8074,0.9946596,-0.000004391093,0.0000036174656,0.10320964,-72.16999,369.68503,-0.0028082384,-41.07355,201.14366,-0.001598236,-0.000032418593,-6.3723395e-9,0.83281964
1690153985263.5364,0.9946525,-0.000004393955,0.0000036174442,0.10327798,-72.55733,371.58102,-0.0028233104,-41.07337,201.05067,-0.0015982292,-0.00003214727,-9.064666e-9,0.8255209
1690153985279.1797,0.99464035,-0.0000043990194,0.0000036173903,0.103394926,-73.24191,374.92926,-0.0028499486,-41.077133,200.90497,-0.0015983735,-0.00003188182,2.1771017e-8,0.82246494
1690153985289.128,0.99462783,-0.000004404085,0.0000036173494,0.10351511,-73.926445,378.27457,-0.002876585,-41.078484,200.74834,-0.0015984278,-0.000031678068,-2.5971134e-9,0.8142566
1690153985315.6577,0.9946163,-0.000004408844,0.0000036173017,0.10362575,-74.57175,381.4257,-0.0029016945,-41.079266,200.59805,-0.0015984582,-0.0000315622,-5.753362e-10,0.8115203
1690153985326.7788,0.9946089,-0.000004411829,0.0000036172805,0.103697345,-74.96861,383.36273,-0.002917137,-41.077843,200.49664,-0.0015984032,-0.00003156308,-8.408933e-9,0.81058204
1690153985353.7993,0.9945966,-0.0000044167905,0.0000036172416,0.10381536,-75.65326,386.70172,-0.0029437777,-41.081146,200.34924,-0.0015985323,-0.000031282125,-1.6031132e-8,0.80242336
1690153985355.9587,0.99458873,-0.0000044200697,0.0000036172055,0.10389079,-76.11213,388.93835,-0.002961633,-41.080402,200.23584,-0.0015985019,-0.000031408716,2.6636284e-9,0.8079878
1690153985372.5093,0.9945763,-0.0000044250414,0.0000036171687,0.10400973,-76.7968,392.2729,-0.0029882747,-41.083138,200.086,-0.0015986093,-0.000031059164,-1.1228529e-8,0.7972907
1690153985399.3882,0.99457484,-0.0000044255753,0.0000036171682,0.104023375,-76.87815,392.66907,-0.0029914402,-41.080967,200.05534,-0.0015985259,-0.00003182884,-2.8290614e-8,0.8149955
1690153985409.7551,0.9945631,-0.0000044304074,0.0000036171189,0.10413556,-77.55872,395.98062,-0.0030179224,-41.084297,199.9096,-0.0015986528,-0.000030991916,1.2562655e-8,0.7984925
1690153985422.611,0.99455065,-0.0000044354915,0.0000036170716,0.10425471,-78.24338,399.30936,-0.0030445633,-41.08584,199.75375,-0.001598713,-0.0000309002,8.426926e-9,0.79563785
1690153985443.354,0.9945434,-0.000004438524,0.0000036170343,0.10432367,-78.673485,401.3994,-0.0030612994,-41.084568,199.64491,-0.0015986649,-0.000031193245,-1.3413749e-8,0.8005204
1690153985463.6006,0.99453443,-0.0000044421417,0.0000036170018,0.104408845,-79.19029,403.9092,-0.0030814093,-41.085835,199.5278,-0.0015987143,-0.000031109445,-1.5424575e-8,0.79810816
1690153985475.693,0.9945221,-0.000004447169,0.0000036169538,0.104526386,-79.87504,407.23187,-0.003108054,-41.088505,199.3774,-0.0015988179,-0.000030937965,-1.12203615e-8,0.79422617
1690153985489.4048,0.9945097,-0.0000044521707,0.0000036169088,0.10464409,-80.55976,410.5517,-0.0031346974,-41.089905,199.22057,-0.0015988707,-0.000030971678,1.4083176e-8,0.7981291
1690153985514.5508,0.99450046,-0.000004455951,0.000003616869,0.104731664,-81.07002,413.02417,-0.0031545525,-41.089325,199.0962,-0.0015988486,-0.00003107283,6.704848e-9,0.79982597
1690153985524.8684,0.9944906,-0.000004459847,0.000003616841,0.10482507,-81.618576,415.68042,-0.0031758978,-41.090412,198.97064,-0.0015988922,-0.000031168627,-1.3126057e-8,0.79987484
1690153985555.881,0.9944786,-0.0000044648455,0.0000036167821,0.104939334,-82.30339,418.99374,-0.0032025448,-41.092815,198.81879,-0.001598984,-0.000031100757,1.2890989e-8,0.80127
1690153985572.896,0.9944708,-0.000004467869,0.0000036167667,0.10501333,-82.72056,421.01114,-0.0032187775,-41.091446,198.71313,-0.0015989341,-0.000031311432,-3.7239978e-8,0.80064225
1690153985593.336,0.99445844,-0.0000044728213,0.0000036167244,0.10513042,-83.405426,424.32034,-0.0032454268,-41.094666,198.56488,-0.0015990571,-0.000031347485,-1.862145e-9,0.80581236
1690153985606.2383,0.9944462,-0.000004477788,0.000003616674,0.10524592,-84.090256,427.62665,-0.0032720745,-41.096115,198.40846,-0.001599113,-0.0000314786,6.794237e-9,0.81023175
1690153985622.8298,0.99443394,-0.0000044826893,0.0000036166314,0.105361685,-84.7751,430.9303,-0.003298723,-41.09733,198.25107,-0.0015991613,-0.00003167725,-1.21131e-8,0.8130029
1690153985639.517,0.99442405,-0.000004486709,0.0000036165911,0.10545529,-85.30361,433.4782,-0.003319288,-41.0969,198.12334,-0.0015991437,-0.000031663207,2.904796e-9,0.8144454
1690153985658.8706,0.99441165,-0.0000044916223,0.0000036165522,0.105572216,-85.97682,436.72107,-0.0033454837,-41.099197,197.97366,-0.001599235,-0.00003201484,-2.4742226e-8,0.820158
1690153985673.077,0.9943988,-0.000004496749,0.0000036165093,0.105693676,-86.66173,440.01755,-0.0033721344,-41.10064,197.81734,-0.0015992894,-0.00003206551,2.330133e-9,0.82466936
1690153985689.5352,0.9943862,-0.0000045018405,0.000003616455,0.10581156,-87.34665,443.31137,-0.0033987858,-41.101917,197.66005,-0.0015993393,-0.000032406064,-1.6693529e-9,0.8329107
1690153985705.9343,0.99437517,-0.0000045062584,0.000003616413,0.105915025,-87.9285,446.10754,-0.0034214263,-41.10209,197.52232,-0.0015993452,-0.000032572745,1.0052403e-8,0.8385997
1690153985729.333,0.99436253,-0.000004511323,0.0000036163653,0.10603374,-88.60033,449.3335,-0.003447568,-41.10395,197.37108,-0.0015994189,-0.000032895077,-8.411413e-9,0.8446535
1690153985741.7507,0.9943496,-0.000004516436,0.0000036163226,0.10615488,-89.27126,452.55258,-0.0034736753,-41.10527,197.2174,-0.0015994696,-0.000033182747,3.0419578e-9,0.8533883
1690153985756.0283,0.99433607,-0.000004521832,0.0000036162717,0.10628135,-89.95627,455.83646,-0.0035003298,-41.1066,197.06065,-0.0015995203,-0.000033349108,1.8567437e-8,0.8595281
1690153985772.6802,0.99432594,-0.000004525828,0.0000036162378,0.10637593,-90.478676,458.33923,-0.0035206575,-41.106285,196.93451,-0.0015995101,-0.00003396498,-1.385272e-8,0.871508
1690153985794.5894,0.9943144,-0.000004530421,0.000003616197,0.10648429,-91.05374,461.0924,-0.0035430342,-41.107494,196.80359,-0.0015995557,-0.000033964803,6.057909e-9,0.87386495
1690153985806.1792,0.99430084,-0.000004535715,0.0000036161562,0.10661061,-91.73882,464.36957,-0.003569692,-41.10978,196.65111,-0.0015996458,-0.00003441981,-1.2301488e-8,0.8833587
1690153985831.684,0.99428725,-0.000004541214,0.0000036160945,0.10673714,-92.4239,467.64395,-0.0035963492,-41.111164,196.49438,-0.0015996975,-0.000034725283,1.8820527e-8,0.8948897
1690153985839.3835,0.99427813,-0.000004544892,0.0000036160554,0.10682228,-92.885826,469.85056,-0.0036143234,-41.11018,196.3798,-0.0015996599,-0.000035136545,8.037968e-9,0.90418375
1690153985863.4536,0.9942639,-0.0000045504908,0.0000036160084,0.10695496,-93.57099,473.12082,-0.0036409842,-41.113052,196.23032,-0.0015997717,-0.000035386543,7.1638757e-9,0.9105324
1690153985873.8682,0.9942575,-0.0000045529955,0.0000036159856,0.10701398,-93.88032,474.59668,-0.0036530206,-41.11086,196.14653,-0.0015996894,-0.000035889425,-3.8619408e-8,0.91802025
1690153985889.564,0.9942426,-0.0000045587767,0.0000036159431,0.107152455,-94.565544,477.86328,-0.0036796837,-41.11474,196.00171,-0.0015998378,-0.000035948593,2.4908855e-9,0.9244134
1690153985919.4924,0.9942333,-0.000004562387,0.000003615914,0.10723839,-94.99198,479.89514,-0.0036962768,-41.113728,195.89542,-0.0015997991,-0.00003643468,-6.458962e-9,0.9358326
1690153985929.841,0.9942188,-0.0000045680886,0.000003615862,0.107372545,-95.677216,483.15738,-0.0037229406,-41.116943,195.74721,-0.0015999244,-0.00003692099,-9.908108e-9,0.9479467
1690153985939.7358,0.99420375,-0.0000045740344,0.0000036158074,0.107512355,-96.36241,486.41675,-0.0037496027,-41.118404,195.59111,-0.0015999796,-0.00003722806,1.7123046e-8,0.95899165
1690153985958.9229,0.9941942,-0.000004577818,0.0000036157694,0.10760053,-96.79233,488.46072,-0.0037663316,-41.11718,195.4829,-0.0015999324,-0.00003784704,1.05535e-8,0.9740833
1690153985972.9873,0.99418545,-0.000004581223,0.000003615742,0.10768154,-97.19897,490.39307,-0.0037821545,-41.117363,195.3872,-0.0015999399,-0.000038101574,5.8710015e-9,0.9800422
1690153985992.208,0.99416995,-0.0000045872857,0.0000036156862,0.10782423,-97.88428,493.6469,-0.003808821,-41.121044,195.24129,-0.0016000834,-0.00003855173,3.0399894e-9,0.99125606
1690153986007.231,0.99415696,-0.0000045924116,0.000003615635,0.10794384,-98.4546,496.3529,-0.003831013,-41.12139,195.10724,-0.0016000966,-0.000039047405,5.7648384e-9,1.004305
1690153986022.8103,0.994141,-0.0000045986894,0.0000036155736,0.1080907,-99.139915,499.6018,-0.00385768,-41.123512,194.95418,-0.0016001796,-0.000039576014,-1.3391875e-9,1.0170363
1690153986046.5054,0.9941265,-0.0000046043697,0.0000036155193,0.10822385,-99.75517,502.5164,-0.0038816205,-41.124233,194.81108,-0.0016002067,-0.00004016405,1.2832417e-8,1.0337445
1690153986056.8406,0.9941114,-0.0000046102837,0.0000036154618,0.108362235,-100.38667,505.50558,-0.0039061932,-41.125473,194.66675,-0.0016002561,-0.000040758416,-3.6519041e-9,1.0471054
1690153986073.302,0.99409455,-0.0000046169466,0.000003615392,0.10851702,-101.07203,508.747,-0.0039328616,-41.12722,194.51202,-0.0016003241,-0.000041294945,-4.0681387e-9,1.060832
1690153986089.7837,0.9940834,-0.0000046211762,0.0000036153633,0.10861899,-101.51883,510.859,-0.003950247,-41.126163,194.40091,-0.0016002844,-0.000041946816,-2.4350834e-8,1.0751798
1690153986108.2966,0.99406713,-0.0000046275263,0.000003615303,0.10876804,-102.17285,513.94806,-0.003975696,-41.128883,194.25804,-0.00160039,-0.000042456886,-2.1351802e-8,1.0886464
1690153986123.4634,0.99405015,-0.000004633878,0.0000036152694,0.108923286,-102.847664,517.1327,-0.004001954,-41.1306,194.10536,-0.0016004564,-0.00004321701,-1.6385505e-8,1.1086909
1690153986147.9407,0.99403256,-0.0000046409386,0.000003615179,0.1090835,-103.53309,520.3647,-0.004028625,-41.132004,193.94894,-0.0016005082,-0.00004371866,2.7840779e-8,1.1267594
1690153986156.3608,0.9940157,-0.0000046473283,0.0000036151334,0.10923701,-104.15617,523.3005,-0.00405287,-41.132652,193.80396,-0.0016005354,-0.00004449275,-3.6002135e-9,1.142953
1690153986189.221,0.9939969,-0.0000046546807,0.0000036150568,0.10940801,-104.84166,526.5276,-0.004079543,-41.13442,193.64932,-0.0016006035,-0.00004510125,7.017811e-9,1.159875
1690153986206.379,0.99398744,-0.000004658127,0.0000036150454,0.109493904,-105.18755,528.1553,-0.0040930025,-41.132465,193.55815,-0.0016005314,-0.000045961515,-5.8059157e-8,1.1744419
1690153986228.2366,0.99396837,-0.0000046654823,0.000003614978,0.10966718,-105.87313,531.3787,-0.0041196793,-41.136173,193.41248,-0.0016006721,-0.000046212725,8.7242824e-10,1.1877975
1690153986239.828,0.9939493,-0.000004672723,0.0000036149206,0.10983989,-106.55865,534.5992,-0.004146354,-41.137867,193.25705,-0.001600739,-0.00004727907,-1.5046833e-8,1.2132189
1690153986257.3914,0.9939299,-0.0000046802743,0.000003614839,0.11001494,-107.24419,537.817,-0.004173029,-41.13919,193.10034,-0.0016007904,-0.000048060832,-1.4526191e-8,1.2333595
1690153986273.4153,0.99391615,-0.0000046854784,0.0000036147983,0.11013926,-107.717064,540.03534,-0.00419143,-41.138332,192.9842,-0.0016007558,-0.000048617403,3.1919736e-9,1.2496924
1690153986301.4226,0.9938956,-0.000004693414,0.000003614719,0.11032474,-108.4027,543.249,-0.004218109,-41.141216,192.83461,-0.0016008671,-0.000049270027,1.9505888e-8,1.2683496
1690153986306.3486,0.9938755,-0.0000047010158,0.0000036146555,0.11050541,-109.05212,546.2905,-0.0042433785,-41.142353,192.68567,-0.0016009123,-0.000050120085,3.2493321e-9,1.288435
1690153986323.1208,0.9938546,-0.0000047090234,0.0000036145796,0.110693626,-109.73775,549.4989,-0.0042700577,-41.14403,192.53032,-0.0016009769,-0.00005107519,1.3921598e-8,1.3142565
1690153986342.2073,0.9938485,-0.0000047113544,0.000003614556,0.11074805,-109.94063,550.44806,-0.004277952,-41.141106,192.46825,-0.0016008612,-0.000051865165,4.4144087e-8,1.3380146
1690153986356.6555,0.9938267,-0.000004719759,0.0000036144677,0.11094377,-110.621445,553.63043,-0.004304444,-41.145355,192.32686,-0.0016010305,-0.000052269777,-1.725767e-8,1.3415196
1690153986380.0713,0.9938044,-0.000004728229,0.0000036143877,0.11114307,-111.30712,556.8328,-0.0043311245,-41.147137,192.17198,-0.0016010973,-0.00005313085,2.3810646e-8,1.3682493
1690153986390.8655,0.9937854,-0.0000047355175,0.0000036143133,0.11131326,-111.9002,559.6007,-0.004354202,-41.147568,192.0331,-0.0016011152,-0.000054158572,4.758262e-9,1.392488
1690153986415.2048,0.99376225,-0.000004744359,0.0000036142198,0.11151911,-112.585945,562.79834,-0.0043808855,-41.149574,191.87962,-0.0016011919,-0.000054896223,2.5114696e-8,1.4137753
1690153986423.1492,0.9937478,-0.000004749937,0.0000036141569,0.111648045,-113.01916,564.8174,-0.0043977425,-41.148453,191.77182,-0.0016011485,-0.000055670796,2.2488049e-8,1.4334096
1690153986455.6296,0.99372387,-0.0000047589465,0.0000036140739,0.111860625,-113.70497,568.0109,-0.0044244286,-41.151695,191.62361,-0.0016012763,-0.00005674605,-5.7031824e-9,1.4578018
1690153986466.0503,0.99371266,-0.0000047632757,0.0000036140234,0.11196042,-114.02823,569.5156,-0.004437007,-41.149574,191.53778,-0.0016011948,-0.00005728319,-2.0520519e-8,1.4699163
1690153986473.1443,0.9936883,-0.0000047724075,0.0000036139434,0.11217678,-114.714096,572.7054,-0.0044636955,-41.15365,191.39307,-0.0016013524,-0.0000582828,-5.2297553e-9,1.4972631
1690153986497.7126,0.9936724,-0.0000047784706,0.0000036138774,0.112317614,-115.14336,574.70074,-0.0044803987,-41.152634,191.28682,-0.0016013104,-0.000058858277,3.3487527e-8,1.5164295
1690153986518.1196,0.9936624,-0.0000047824014,0.00000361382,0.11240552,-115.43547,576.0581,-0.0044917655,-41.15188,191.21373,-0.0016012782,-0.000059496917,8.113965e-8,1.538152
1690153986529.068,0.9936371,-0.000004791866,0.0000036137342,0.11262921,-116.12139,579.24255,-0.004518456,-41.156452,191.07196,-0.0016014607,-0.00006043735,9.402282e-9,1.5540191
1690153986539.9387,0.9936117,-0.0000048015945,0.0000036136191,0.1128531,-116.80724,582.424,-0.0045451433,-41.15819,190.91698,-0.0016015274,-0.000061555795,2.3368488e-8,1.5844116
1690153986568.2732,0.99359417,-0.000004808179,0.0000036135527,0.11300721,-117.2627,584.5355,-0.004562866,-41.15713,190.80443,-0.0016014867,-0.00006239912,1.418693e-8,1.6050941
1690153986582.818,0.9935775,-0.000004814431,0.000003613491,0.1131539,-117.700584,586.56445,-0.004579905,-41.157516,190.70265,-0.0016015023,-0.00006302801,5.6096168e-9,1.620254
1690153986589.9402,0.9935503,-0.0000048246125,0.000003613389,0.113392435,-118.38656,589.7402,-0.004606597,-41.16111,190.55588,-0.0016016398,-0.00006397222,4.4338364e-8,1.6487564
1690153986608.5322,0.993526,-0.0000048337893,0.0000036132865,0.113605164,-118.98513,592.5092,-0.0046298886,-41.161774,190.41707,-0.0016016682,-0.00006517887,4.053456e-9,1.675289
1690153986623.7,0.99351346,-0.0000048384873,0.000003613236,0.11371457,-119.27256,593.83844,-0.004641073,-41.159554,190.3398,-0.0016015834,-0.00006558331,-2.0530338e-8,1.6829238
1690153986650.3237,0.993485,-0.000004849088,0.0000036131296,0.113963105,-119.95861,597.0083,-0.0046677683,-41.164196,190.19724,-0.0016017624,-0.00006680371,7.818763e-9,1.7174
1690153986661.0977,0.9934591,-0.000004858869,0.0000036130123,0.114188224,-120.57251,599.84265,-0.004691656,-41.165184,190.05594,-0.0016017997,-0.00006800558,2.5661866e-8,1.7503312
1690153986673.6848,0.9934291,-0.0000048700213,0.0000036128981,0.11444935,-121.25854,603.0073,-0.0047183507,-41.167072,189.90205,-0.0016018735,-0.000069063644,1.7867343e-8,1.7769171
1690153986691.4038,0.99340963,-0.000004877302,0.0000036128135,0.11461771,-121.69734,605.03046,-0.0047354256,-41.16603,189.79332,-0.0016018337,-0.000070213726,7.0949304e-9,1.8052871
1690153986717.665,0.9933876,-0.000004885594,0.0000036127142,0.11480871,-122.20993,607.3922,-0.0047553713,-41.167496,189.67804,-0.0016018878,-0.00007115923,5.788284e-8,1.8351414
1690153986727.963,0.99335605,-0.0000048971115,0.000003612608,0.115081176,-122.89604,610.5508,-0.004782069,-41.170403,189.52872,-0.0016020047,-0.00007238359,-6.2120544e-9,1.8594766
1690153986740.165,0.99332404,-0.0000049089617,0.0000036124784,0.115357,-123.58213,613.70654,-0.004808766,-41.172043,189.37328,-0.001602068,-0.000073774536,7.1645476e-9,1.8966599
1690153986771.1096,0.9933039,-0.0000049163505,0.0000036124047,0.11553054,-124.01101,615.67816,-0.004825454,-41.170845,189.26631,-0.001602022,-0.00007496173,-4.1848045e-9,1.9258517
1690153986781.571,0.99328125,-0.0000049246255,0.0000036123238,0.115725316,-124.497505,617.91327,-0.0048443847,-41.17198,189.15627,-0.0016020671,-0.000075912074,-2.0195683e-8,1.9484218
1690153986790.4783,0.9932476,-0.000004937027,0.0000036121833,0.116013125,-125.18371,621.0632,-0.0048710858,-41.175194,189.00789,-0.0016021876,-0.000076826786,5.491338e-8,1.9801413
1690153986807.2546,0.9932264,-0.0000049447412,0.0000036121078,0.11619482,-125.61019,623.0199,-0.004887681,-41.174004,188.90224,-0.0016021441,-0.000077761135,6.355023e-9,1.9989554
1690153986834.606,0.9932087,-0.000004951273,0.0000036120332,0.11634624,-125.97758,624.70465,-0.0049019763,-41.174046,188.81503,-0.0016021435,-0.00007874145,4.415937e-8,2.028251
1690153986848.999,0.9931738,-0.0000049637415,0.0000036119286,0.11664381,-126.66384,627.849,-0.00492868,-41.17816,188.67088,-0.0016023081,-0.00008005013,-3.177629e-8,2.0536282
1690153986856.8916,0.9931378,-0.0000049768446,0.0000036117879,0.11694984,-127.35006,630.9905,-0.004955382,-41.17985,188.51587,-0.001602371,-0.000081275,1.733815e-8,2.090431
1690153986876.038,0.9931064,-0.0000049882406,0.000003611664,0.11721574,-127.942154,633.69904,-0.0049784216,-41.180374,188.37773,-0.0016023912,-0.000082824816,1.9180302e-8,2.1304355
1690153986890.4053,0.9930906,-0.000004994036,0.0000036115935,0.11734937,-128.25587,635.1336,-0.0049906294,-41.178654,188.29622,-0.0016023235,-0.0000835645,3.257484e-8,2.1508265
1690153986916.6956,0.9930534,-0.0000050076087,0.0000036114368,0.1176641,-128.94223,638.2694,-0.0050173365,-41.182922,188.15256,-0.0016024901,-0.00008473291,2.5447315e-8,2.1799438
1690153986948.6646,0.9930212,-0.000005019111,0.0000036113295,0.117936365,-129.52493,640.9297,-0.0050400104,-41.183655,188.01752,-0.0016025201,-0.00008643968,1.0590737e-9,2.2211695
1690153986956.9492,0.9929819,-0.000005033142,0.0000036111878,0.1182664,-130.21129,644.0604,-0.005066717,-41.185883,187.86493,-0.0016026034,-0.000087612454,5.76727e-8,2.2574668
1690153986984.0898,0.99294245,-0.0000050472904,0.0000036110341,0.118596956,-130.89763,647.1884,-0.0050934236,-41.187473,187.70943,-0.0016026677,-0.000089397385,1.3640055e-8,2.2988093
1690153986994.4822,0.99292177,-0.000005054531,0.0000036109725,0.11876985,-131.23433,648.7223,-0.005106525,-41.18512,187.62044,-0.0016025783,-0.00009014338,-2.2606372e-8,2.314204
1690153987007.2224,0.99288076,-0.000005069077,0.0000036108252,0.119112045,-131.92079,651.84674,-0.0051332363,-41.189346,187.47572,-0.0016027418,-0.00009183507,-2.8341884e-9,2.3595839
1690153987024.0361,0.99285454,-0.000005078457,0.0000036107197,0.11933051,-132.35158,653.8065,-0.0051499987,-41.188293,187.3697,-0.0016026992,-0.00009271226,2.2601853e-8,2.384922
1690153987041.8457,0.99282354,-0.000005089574,0.0000036105919,0.1195889,-132.8654,656.1424,-0.0051699923,-41.189907,187.25473,-0.0016027647,-0.00009442049,-2.634207e-8,2.4237366
1690153987057.1914,0.99278015,-0.000005104815,0.0000036104384,0.119948,-133.55188,659.26056,-0.0051967045,-41.19289,187.10579,-0.0016028819,-0.00009568474,-4.4675527e-8,2.4542391
1690153987078.1467,0.99273604,-0.0000051201696,0.0000036102958,0.12031232,-134.23834,662.3759,-0.005223416,-41.19466,186.95065,-0.0016029482,-0.000097487566,1.670093e-9,2.5053227
1690153987090.6511,0.9926954,-0.000005134385,0.0000036101562,0.12064806,-134.8629,665.2081,-0.005247718,-41.195442,186.80655,-0.0016029804,-0.00009914608,-2.992488e-8,2.5446477
1690153987115.521,0.99265003,-0.0000051502657,0.0000036099852,0.12102015,-135.54944,668.3186,-0.0052744322,-41.19751,186.65273,-0.0016030583,-0.00010095162,1.1206928e-8,2.5955389
1690153987125.9668,0.9926146,-0.000005162282,0.0000036098943,0.12130991,-136.06174,670.63824,-0.0052943667,-41.19706,186.53038,-0.0016030445,-0.00010229399,-5.2735775e-8,2.6233628
1690153987149.3862,0.9925686,-0.0000051785582,0.000003609693,0.12168607,-136.74834,673.7443,-0.005321083,-41.200043,186.38026,-0.0016031554,-0.00010399144,3.3261784e-8,2.6761758
1690153987157.1523,0.9925381,-0.000005189055,0.0000036095917,0.12193467,-137.18323,675.71063,-0.0053380053,-41.19892,186.2732,-0.0016031162,-0.00010540892,-4.1433644e-8,2.7046857
1690153987183.3057,0.9924895,-0.0000052059077,0.0000036094077,0.122329414,-137.86989,678.8125,-0.005364724,-41.20233,186.12558,-0.0016032476,-0.0001069047,-1.7856994e-8,2.7454882
1690153987195.0994,0.9924664,-0.000005213829,0.000003609332,0.12251727,-138.18178,680.2209,-0.00537686,-41.200066,186.04262,-0.0016031619,-0.000108053915,-6.251193e-8,2.7705803
1690153987207.716,0.9924154,-0.000005231186,0.0000036091674,0.122929186,-138.8685,683.3191,-0.0054035815,-41.204456,185.8987,-0.0016033307,-0.000109724235,-2.4481855e-8,2.8172028
1690153987224.2212,0.9923807,-0.000005243183,0.0000036090305,0.123209134,-139.33588,685.4266,-0.005421768,-41.203922,185.78609,-0.0016033092,-0.00011113496,-9.027041e-9,2.8549106
1690153987246.0017,0.9923422,-0.0000052565474,0.000003608871,0.12351952,-139.85336,687.75836,-0.005441904,-41.20529,185.66934,-0.00160336,-0.000112646376,3.5674862e-8,2.8981936
1690153987258.663,0.99229103,-0.000005274064,0.0000036086763,0.12392947,-140.52379,690.7767,-0.0054679913,-41.208256,185.52339,-0.0016034765,-0.000114571405,1.637972e-8,2.94549
1690153987275.017,0.99223626,-0.000005292729,0.000003608472,0.12436717,-141.21051,693.8657,-0.005494713,-41.210022,185.36885,-0.0016035442,-0.000116342395,3.2845207e-8,2.992766
1690153987304.8977,0.9921957,-0.0000053065087,0.0000036083195,0.12469004,-141.71208,696.1205,-0.0055142296,-41.209454,185.24855,-0.0016035232,-0.00011776929,1.4747099e-8,3.0275593
1690153987318.5916,0.9921408,-0.0000053251633,0.0000036081053,0.12512572,-142.38643,699.1493,-0.0055404697,-41.2124,185.10132,-0.0016036386,-0.00011995535,-2.7634928e-9,3.0821056
1690153987324.306,0.9920837,-0.000005344339,0.0000036079077,0.12557825,-143.07323,702.23126,-0.005567194,-41.21429,184.94685,-0.0016037122,-0.00012217647,-3.6640213e-9,3.1391804
1690153987341.325,0.99203616,-0.0000053601925,0.0000036077488,0.12595348,-143.62381,704.7003,-0.005588618,-41.214165,184.81717,-0.0016037095,-0.00012365241,-4.3680075e-8,3.1731095
1690153987364.3945,0.9920159,-0.0000053667554,0.0000036077022,0.12611276,-143.86378,705.7761,-0.005597956,-41.2121,184.75192,-0.0016036307,-0.00012484124,-7.058246e-8,3.2009733
1690153987377.4973,0.9919555,-0.000005386988,0.0000036074744,0.12658682,-144.55074,708.85297,-0.005624686,-41.21719,184.6108,-0.0016038243,-0.00012644223,1.0561779e-8,3.25042
1690153987390.886,0.9918946,-0.0000054071784,0.0000036072624,0.12706318,-145.2376,711.92676,-0.005651413,-41.21925,184.45674,-0.0016039065,-0.00012904491,-2.6273929e-8,3.3135617
1690153987409.1453,0.99184793,-0.000005422504,0.000003607113,0.12742706,-145.75644,714.24713,-0.005671602,-41.218933,184.33319,-0.0016038924,-0.00013066133,6.2531105e-9,3.3582857
1690153987424.3948,0.9917993,-0.0000054388324,0.0000036069055,0.12780522,-146.29504,716.6542,-0.0056925598,-41.220123,184.21109,-0.0016039369,-0.00013230175,4.171489e-8,3.4037817
1690153987445.4092,0.9917345,-0.000005460102,0.0000036066817,0.12830721,-146.98203,719.72156,-0.005719291,-41.22303,184.0612,-0.0016040549,-0.00013463518,-4.528008e-8,3.4549446
1690153987457.5754,0.9916749,-0.0000054795464,0.00000360648,0.12876685,-147.6036,722.4948,-0.005743478,-41.224022,183.9187,-0.0016040915,-0.00013659247,-8.858181e-9,3.508832
1690153987474.0862,0.9916083,-0.0000055012124,0.0000036062522,0.12927854,-148.2906,725.5572,-0.00577021,-41.226208,183.76546,-0.0016041774,-0.00013906627,-2.4434792e-8,3.5708337
1690153987503.2148,0.99155957,-0.0000055171354,0.0000036060721,0.12965222,-148.7876,727.7712,-0.005789549,-41.22576,183.64648,-0.001604157,-0.0001407185,2.7937205e-8,3.6184442
1690153987513.701,0.99149185,-0.000005539151,0.000003605821,0.13016872,-149.45882,730.75867,-0.0058156676,-41.22867,183.50009,-0.00160427,-0.00014292022,3.1416e-8,3.6756043
1690153987524.5928,0.9914209,-0.000005562205,0.0000036055476,0.13070779,-150.14587,733.814,-0.005842402,-41.230537,183.34589,-0.0016043441,-0.00014527253,4.863325e-9,3.73353
1690153987547.972,0.99137676,-0.000005576464,0.000003605383,0.13104218,-150.57353,735.7148,-0.005859043,-41.22935,183.24019,-0.0016042968,-0.0001470237,2.937534e-8,3.780582
1690153987557.6926,0.9913303,-0.0000055913583,0.000003605219,0.131393,-151.01236,737.664,-0.005876118,-41.229992,183.13971,-0.0016043196,-0.00014831478,7.427082e-8,3.8179588
1690153987579.0632,0.9912564,-0.0000056150666,0.000003604945,0.13194913,-151.69954,740.7137,-0.005902857,-41.233994,182.99382,-0.0016044795,-0.00015092651,-4.9626196e-9,3.8774617
1690153987591.9326,0.99121183,-0.0000056291965,0.0000036048007,0.13228436,-152.09622,742.4733,-0.0059182923,-41.232388,182.89471,-0.0016044189,-0.00015216903,-4.1335063e-8,3.9060512
1690153987607.7334,0.9911354,-0.0000056534423,0.0000036045312,0.13285553,-152.78345,745.519,-0.0059450334,-41.236538,182.7487,-0.0016045796,-0.00015501055,-2.5069108e-8,3.9805467
1690153987630.968,0.9910753,-0.000005672752,0.000003604278,0.13330317,-153.32524,747.91846,-0.0059661157,-41.236897,182.62206,-0.00160459,-0.0001571831,4.241272e-8,4.0428743
1690153987641.7007,0.99100196,-0.0000056959047,0.0000036040133,0.1338476,-153.95938,750.72455,-0.0059907907,-41.238907,182.4814,-0.00160467,-0.00015923107,6.9417636e-9,4.0921574
1690153987657.911,0.9909209,-0.000005721387,0.0000036037181,0.13444634,-154.64662,753.76294,-0.0060175327,-41.24122,182.32848,-0.0016047608,-0.00016205876,-9.220955e-9,4.1632752
1690153987674.3962,0.9908666,-0.000005738573,0.0000036034953,0.13484581,-155.09814,755.75806,-0.006035102,-41.2401,182.21837,-0.0016047155,-0.0001634386,2.5208319e-8,4.201913
1690153987692.4678,0.9907869,-0.000005763388,0.0000036032116,0.13542998,-155.75343,758.651,-0.0060606003,-41.243397,182.0766,-0.0016048437,-0.00016629437,3.052724e-8,4.2757688
1690153987707.9893,0.9907015,-0.000005789878,0.0000036029064,0.1360534,-156.43544,761.6593,-0.0060871383,-41.24549,181.92435,-0.0016049286,-0.00016915798,-3.5976395e-8,4.342891
1690153987729.6052,0.9906149,-0.000005816806,0.0000036025713,0.13668267,-157.12277,764.6883,-0.006113883,-41.247387,181.76949,-0.0016049974,-0.00017195566,5.926696e-8,4.4235125
1690153987741.3113,0.9905323,-0.000005842282,0.0000036022623,0.13727985,-157.75728,767.4823,-0.006138573,-41.24825,181.62419,-0.0016050336,-0.00017433013,8.6564285e-9,4.479777
1690153987768.0159,0.99044216,-0.0000058698038,0.0000036019458,0.13792832,-158.44467,770.5064,-0.0061653205,-41.25054,181.4709,-0.0016051219,-0.00017743277,2.9373084e-8,4.5610294
1690153987780.3857,0.99038005,-0.000005888763,0.0000036017225,0.13837416,-158.91158,772.55927,-0.0061834883,-41.249672,181.35799,-0.0016050885,-0.00017934831,2.602438e-8,4.6098547
1690153987791.401,0.99028563,-0.000005917445,0.0000036013805,0.13904813,-159.59908,775.5792,-0.0062102396,-41.253056,181.20964,-0.0016052218,-0.00018212771,-4.690496e-9,4.6781654
1690153987808.3167,0.9902136,-0.000005939373,0.0000036011002,0.13956009,-160.12082,777.8696,-0.0062305415,-41.25308,181.08687,-0.0016052237,-0.00018461456,-2.5496103e-8,4.739987
1690153987824.434,0.99015135,-0.000005958034,0.0000036008882,0.1400008,-160.55766,779.7862,-0.00624754,-41.252956,180.98444,-0.0016052211,-0.0001862306,-6.409872e-8,4.777976
1690153987842.4092,0.990052,-0.000005987791,0.00000360054,0.14070186,-161.24522,782.8,-0.006274294,-41.257175,180.83826,-0.0016053803,-0.00018928747,3.4474773e-8,4.8652105
1690153987858.1516,0.9899567,-0.0000060164375,0.0000036001693,0.14137073,-161.89742,785.6563,-0.0062996717,-41.258778,180.69072,-0.0016054413,-0.00019228316,6.111575e-8,4.9446287
1690153987884.78,0.98985255,-0.000006047282,0.000003599811,0.14209849,-162.58498,788.66486,-0.006326426,-41.260715,180.53679,-0.0016055192,-0.00019533206,1.2109554e-8,5.018532
1690153987891.1511,0.9897551,-0.0000060761568,0.0000035994499,0.1427755,-163.22263,791.45264,-0.0063512377,-41.26191,180.39139,-0.0016055665,-0.00019835122,-4.44065e-9,5.0944867
1690153987907.7925,0.98964727,-0.0000061080036,0.000003599042,0.143521,-163.91025,794.45624,-0.006377994,-41.26407,180.23787,-0.001605648,-0.00020142262,4.398229e-8,5.1779666
1690153987925.0425,0.98960847,-0.0000061193873,0.0000035988985,0.143788,-164.15817,795.53894,-0.006387641,-41.26102,180.16817,-0.0016055314,-0.00020276371,5.2585785e-9,5.2091374
1690153987941.3005,0.98949844,-0.0000061514556,0.0000035985147,0.14454381,-164.84592,798.5393,-0.0064144027,-41.26621,180.026,-0.001605733,-0.00020610829,1.5318202e-8,5.2954016
1690153987961.7473,0.9893855,-0.000006184409,0.0000035980868,0.14531487,-165.53358,801.53674,-0.006441161,-41.268337,179.87227,-0.0016058136,-0.0002092461,6.2063656e-8,5.3796024
1690153987974.8909,0.9892749,-0.000006216569,0.0000035976554,0.1460655,-166.19783,804.42944,-0.0064670076,-41.269844,179.72174,-0.0016058726,-0.00021259085,5.0401553e-8,5.4648676
1690153987991.3083,0.98915684,-0.000006250374,0.0000035972485,0.14686303,-166.88556,807.4218,-0.0064937687,-41.2717,179.56761,-0.0016059476,-0.0002158018,-4.146632e-9,5.542526
1690153988007.8132,0.9890605,-0.0000062780487,0.0000035968797,0.14751,-167.4362,809.816,-0.006515195,-41.271782,179.4387,-0.0016059472,-0.00021826937,6.704669e-8,5.612033
1690153988024.7986,0.9889428,-0.0000063116395,0.000003596439,0.14829709,-168.10373,812.7157,-0.0065411692,-41.27466,179.29202,-0.0016060588,-0.00022204178,6.812579e-8,5.709417
1690153988041.646,0.9888191,-0.000006346529,0.0000035960115,0.14912006,-168.78374,815.667,-0.006567629,-41.27658,179.13979,-0.0016061374,-0.00022547564,-1.1763937e-8,5.79088
1690153988059.9868,0.98869145,-0.000006382505,0.0000035955388,0.14996393,-169.47159,818.64966,-0.0065943943,-41.278442,178.9852,-0.0016062096,-0.00022896132,-1.1077153e-8,5.881001
1690153988074.7805,0.9885622,-0.00000641852,0.0000035950898,0.15081336,-170.15945,821.6297,-0.00662116,-41.280357,178.8305,-0.0016062856,-0.00023283511,-4.695481e-8,5.97794
1690153988098.5898,0.98842925,-0.0000064554906,0.000003594611,0.15168262,-170.84735,824.6072,-0.006647927,-41.282127,178.67558,-0.0016063524,-0.0002362941,2.5070324e-9,6.070408
1690153988109.2664,0.98831034,-0.000006488516,0.000003594159,0.15245555,-171.45364,827.2294,-0.006671519,-41.282993,178.53621,-0.0016063835,-0.00023958735,5.8486165e-8,6.15981
1690153988133.6565,0.9881722,-0.000006526322,0.0000035936876,0.15334848,-172.14162,830.2021,-0.0066982894,-41.28549,178.38402,-0.0016064835,-0.00024340647,-9.17439e-9,6.252466
1690153988141.381,0.98808277,-0.000006550724,0.0000035933733,0.1539234,-172.5765,832.0802,-0.0067152116,-41.284157,178.27768,-0.0016064303,-0.00024533825,2.7107651e-8,6.3047843
1690153988173.6228,0.9879394,-0.0000065899258,0.0000035928301,0.15484092,-173.26459,835.0488,-0.0067419857,-41.28828,178.13078,-0.001606591,-0.000249514,2.40159e-8,6.4112396
1690153988185.6633,0.98787564,-0.0000066070374,0.000003592629,0.1552474,-173.57031,836.36743,-0.006753882,-41.285885,178.05037,-0.0016065015,-0.00025146105,-5.8095797e-8,6.4547086
1690153988191.272,0.98772615,-0.000006647182,0.0000035921223,0.15619572,-174.25847,839.33246,-0.006780659,-41.29077,177.90688,-0.0016066899,-0.00025512703,-7.44091e-9,6.5522437
1690153988211.3296,0.98761964,-0.0000066757098,0.0000035917478,0.15686758,-174.74963,841.4475,-0.0067997705,-41.29061,177.79083,-0.0016066816,-0.0002578912,3.5992972e-8,6.6269736
1690153988224.8914,0.98756707,-0.0000066895586,0.0000035915923,0.1571981,-174.98776,842.47266,-0.0068090367,-41.288445,177.72784,-0.0016066072,-0.0002596489,-1.9008372e-7,6.654307
1690153988241.5989,0.98741287,-0.0000067307146,0.0000035910234,0.15816359,-175.67598,845.4324,-0.0068358164,-41.29475,177.58801,-0.0016068426,-0.00026368775,2.9414094e-8,6.776318
1690153988258.3127,0.9872866,-0.0000067643323,0.0000035905405,0.15894984,-176.23103,847.8178,-0.0068574147,-41.29532,177.45985,-0.0016068652,-0.0002668741,1.3665975e-8,6.85738
1690153988274.765,0.9871269,-0.000006806564,0.0000035899393,0.15993914,-176.91925,850.77264,-0.006884194,-41.29842,177.30925,-0.0016069857,-0.00027117357,1.5026407e-8,6.968137
1690153988294.0564,0.98696256,-0.0000068493573,0.0000035893784,0.16094981,-177.60263,853.70416,-0.0069107856,-41.300312,177.1559,-0.0016070618,-0.00027527468,-3.620933e-8,7.069248
1690153988308.4497,0.9867981,-0.0000068922172,0.0000035887676,0.1619548,-178.27939,856.6046,-0.006937119,-41.302246,177.00362,-0.0016071334,-0.0002795139,4.7667804e-8,7.184442
1690153988333.1516,0.98662734,-0.000006936451,0.000003588134,0.16299208,-178.96765,859.55164,-0.0069639003,-41.304283,176.84935,-0.0016072127,-0.00028385167,4.5184585e-8,7.2957487
1690153988341.546,0.9864769,-0.000006974872,0.000003587626,0.16390021,-179.55763,862.0759,-0.006986858,-41.30475,176.71335,-0.0016072345,-0.00028734628,-3.8277005e-8,7.379018
1690153988373.2476,0.98629934,-0.000007020316,0.0000035869625,0.16496535,-180.24599,865.0183,-0.0070136427,-41.307674,176.56181,-0.0016073436,-0.00029176104,6.7620455e-8,7.501054
1690153988383.56,0.9862117,-0.0000070426677,0.0000035866296,0.16548842,-180.58482,866.4661,-0.0070268274,-41.305508,176.47455,-0.0016072589,-0.00029408623,7.9744595e-8,7.5615635
1690153988391.598,0.9860281,-0.000007089263,0.0000035859334,0.16657926,-181.27328,869.40485,-0.007053617,-41.310226,176.33032,-0.0016074452,-0.00029840693,9.152611e-9,7.6676865
1690153988414.84,0.9859143,-0.0000071178965,0.000003585513,0.16725117,-181.69513,871.20465,-0.0070700315,-41.30923,176.22775,-0.0016074046,-0.00030109903,5.4753986e-8,7.740306
1690153988425.0803,0.9858255,-0.0000071401073,0.0000035851956,0.16777384,-182.02061,872.59265,-0.0070826965,-41.308506,176.14983,-0.0016073765,-0.00030288508,5.531837e-8,7.7860894
1690153988447.9116,0.9856319,-0.0000071883546,0.0000035844905,0.16890734,-182.70915,875.52606,-0.007109489,-41.31427,176.00778,-0.0016076036,-0.00030811987,-1.235504e-8,7.9154696
1690153988458.3518,0.9855155,-0.0000072173566,0.0000035840399,0.16958508,-183.12917,877.3146,-0.007125832,-41.313503,175.90575,-0.001607573,-0.000311502,3.774461e-9,8.003639
1690153988487.5115,0.98531383,-0.0000072668754,0.0000035833411,0.1707532,-183.81773,880.2438,-0.007152626,-41.317516,175.7591,-0.0016077305,-0.0003158037,-1.932254e-8,8.111865
1690153988501.382,0.98519146,-0.000007297135,0.0000035828505,0.17145786,-184.23882,882.0342,-0.007169011,-41.31666,175.65654,-0.0016076926,-0.00031901957,9.5357336e-8,8.202851
1690153988508.3257,0.98498374,-0.000007347591,0.0000035821247,0.1726472,-184.92744,884.95917,-0.0071958066,-41.320812,175.51007,-0.0016078595,-0.0003238414,-3.4844504e-8,8.317034
1690153988530.267,0.9848118,-0.00000738936,0.0000035814771,0.17362551,-185.4946,887.3665,-0.0072178757,-41.321552,175.37956,-0.0016078872,-0.0003277877,-5.8934178e-9,8.420484
1690153988541.8254,0.9847219,-0.0000074110244,0.0000035811506,0.17413451,-185.78477,888.5978,-0.007229167,-41.319176,175.30475,-0.0016077926,-0.0003288332,5.1432252e-8,8.451252
1690153988571.0496,0.984503,-0.000007463566,0.0000035803478,0.17536792,-186.47351,891.5171,-0.007255967,-41.325172,175.16273,-0.0016080276,-0.0003349004,9.297382e-9,8.604087
1690153988581.8455,0.9843508,-0.0000074999143,0.0000035797812,0.1762201,-186.95049,893.5378,-0.0072745266,-41.324787,175.04982,-0.0016080117,-0.00033803532,3.1124472e-8,8.686418
1690153988591.7056,0.9841257,-0.00000755348,0.0000035789171,0.17747273,-187.63922,896.4526,-0.0073013264,-41.328934,174.90169,-0.0016081724,-0.00034384977,4.0209457e-8,8.836913
1690153988608.9702,0.98398066,-0.0000075876023,0.0000035783971,0.17827548,-188.0781,898.309,-0.007318404,-41.327774,174.79561,-0.0016081309,-0.0003467646,-4.4612833e-8,8.905862
1690153988640.0244,0.98384464,-0.000007619745,0.000003577854,0.17902446,-188.48785,900.0412,-0.007334348,-41.32825,174.70149,-0.0016081412,-0.00034941157,1.6152192e-7,8.988286
1690153988650.2778,0.98360586,-0.0000076750175,0.0000035770506,0.18033163,-189.17668,902.9503,-0.0073611513,-41.333336,174.55672,-0.0016083486,-0.0003556252,-7.368674e-8,9.131435
1690153988658.602,0.9833635,-0.000007731091,0.0000035761623,0.18164837,-189.86546,905.8566,-0.007387953,-41.335865,174.40303,-0.0016084423,-0.00036109696,4.179672e-8,9.28047
1690153988675.0046,0.9832167,-0.000007764885,0.000003575621,0.18244158,-190.28304,907.6177,-0.007404201,-41.334373,174.30052,-0.0016083833,-0.0003641125,6.996486e-8,9.359487
1690153988699.0212,0.9830947,-0.000007792963,0.0000035751498,0.1830979,-190.62123,909.0432,-0.007417361,-41.333466,174.22049,-0.0016083468,-0.0003653305,9.9610475e-8,9.392749
1690153988709.8538,0.98284215,-0.000007850417,0.000003574237,0.18444854,-191.30019,911.90234,-0.00744378,-41.339504,174.0799,-0.0016085864,-0.00037231695,-1.3320952e-8,9.56412
1690153988732.269,0.98258317,-0.000007908975,0.0000035732878,0.18582343,-191.98907,914.8007,-0.0074705854,-41.342308,173.92688,-0.0016086932,-0.00037823283,4.9990863e-8,9.720107
1690153988741.809,0.9824101,-0.000007947743,0.0000035726746,0.18673635,-192.44624,916.7231,-0.0074883746,-41.34125,173.81683,-0.0016086558,-0.00038185692,-4.9784887e-8,9.806543
1690153988770.4666,0.9821402,-0.000008008028,0.0000035716753,0.18815072,-193.13527,919.6174,-0.0075151855,-41.345467,173.66924,-0.0016088169,-0.00038763808,1.6736108e-8,9.960513
1690153988780.523,0.98199236,-0.000008040638,0.0000035711682,0.18892077,-193.51297,921.20337,-0.0075298827,-41.34366,173.57541,-0.0016087494,-0.00039032486,-5.5413693e-8,10.024875
1690153988791.9924,0.9817112,-0.000008102655,0.0000035701307,0.1903762,-194.20207,924.09375,-0.007556697,-41.34861,173.42989,-0.0016089397,-0.00039663695,4.1909636e-9,10.190991
1690153988808.8076,0.9815455,-0.000008139159,0.0000035694834,0.19122864,-194.61269,925.8153,-0.0075726747,-41.347424,173.32991,-0.0016088925,-0.00039978183,3.7223643e-8,10.273732
1690153988833.142,0.98135084,-0.000008181355,0.0000035688156,0.19222502,-195.0764,927.75806,-0.0075907186,-41.348534,173.22623,-0.0016089382,-0.00040333488,-2.4066882e-8,10.360716
1690153988843.3865,0.98105586,-0.000008245256,0.0000035677333,0.19372515,-195.76555,930.6425,-0.0076175346,-41.353634,173.0798,-0.0016091354,-0.00041047184,2.06617e-8,10.545935
1690153988858.8562,0.98075616,-0.000008309603,0.000003566641,0.1952365,-196.45465,933.52423,-0.007644349,-41.35617,172.92616,-0.0016092336,-0.00041675236,4.3823007e-8,10.708152
1690153988879.6885,0.9805691,-0.000008349688,0.0000035659266,0.19617411,-196.8803,935.3033,-0.0076609114,-41.354656,172.82214,-0.0016091726,-0.00042001987,1.0415983e-7,10.795841
1690153988899.7014,0.98028046,-0.000008410907,0.0000035648684,0.1976112,-197.51735,937.9633,-0.0076857,-41.358513,172.68542,-0.0016093227,-0.00042607673,1.0638626e-7,10.951257
1690153988923.2405,0.97996414,-0.000008477303,0.0000035637443,0.19917388,-198.20656,940.8385,-0.0077125183,-41.361782,172.53357,-0.0016094544,-0.00043329914,-8.793585e-9,11.129069
1690153988925.2798,0.9796394,-0.0000085450365,0.0000035625646,0.20076492,-198.8958,943.71106,-0.0077393376,-41.364002,172.37933,-0.0016095382,-0.00043946947,5.8126012e-8,11.291585
1690153988942.0488,0.97930694,-0.000008613839,0.0000035613546,0.20238087,-199.58507,946.58105,-0.0077661583,-41.366146,172.225,-0.0016096231,-0.00044588544,1.185119e-8,11.453815
1690153988965.5605,0.9792741,-0.000008620411,0.0000035612713,0.20253952,-199.65923,946.8901,-0.0077690445,-41.365658,172.19809,-0.0016096237,-0.00045163225,-5.7459977e-7,11.5672865
1690153988975.9797,0.9789311,-0.00000869098,0.0000035599646,0.20419046,-200.3487,949.7576,-0.0077958726,-41.36785,172.05269,-0.0016096849,-0.000452498,1.2814064e-7,11.631279
1690153989001.3467,0.9785822,-0.000008761862,0.000003558702,0.20585641,-201.03804,952.6222,-0.007822696,-41.370895,171.89964,-0.0016098067,-0.00046006174,2.3788427e-8,11.819676
1690153989008.7307,0.9783649,-0.000008805692,0.000003557918,0.2068868,-201.46391,954.391,-0.007839267,-41.36926,171.7958,-0.0016097429,-0.0004634551,3.031614e-8,11.907063
1690153989037.737,0.97800076,-0.000008878418,0.0000035566482,0.20860127,-202.15341,957.25165,-0.007866097,-41.374027,171.64915,-0.0016099302,-0.0004709112,-1.6958989e-8,12.095726
1690153989048.3723,0.97784454,-0.000008909618,0.0000035560631,0.20933226,-202.45328,958.49554,-0.007877765,-41.37125,171.57085,-0.0016098256,-0.00047322598,-1.2528803e-7,12.148948
1690153989059.138,0.9774678,-0.000008984296,0.0000035546768,0.21108462,-203.14287,961.3526,-0.007904598,-41.37716,171.42735,-0.0016100488,-0.00048083274,8.715864e-8,12.355915
1690153989075.7063,0.9772199,-0.00000903266,0.0000035538542,0.21222913,-203.59459,963.22327,-0.007922175,-41.376446,171.31969,-0.0016100344,-0.0004857835,-3.069807e-7,12.460227
1690153989098.6335,0.9769788,-0.000009079888,0.0000035529579,0.21333627,-204.02835,965.0183,-0.007939054,-41.377026,171.2209,-0.0016100454,-0.00048917736,2.8216022e-8,12.567175
1690153989109.5017,0.9765836,-0.000009156751,0.0000035514863,0.21513812,-204.71416,967.8536,-0.00796574,-41.382427,171.07584,-0.0016102539,-0.0004972498,7.286592e-8,12.777365
1690153989133.396,0.9761786,-0.000009234598,0.0000035500302,0.21696863,-205.40375,970.7019,-0.007992573,-41.38531,170.92227,-0.001610367,-0.0005052716,5.7236768e-8,12.982046
1690153989142.081,0.97591186,-0.0000092856535,0.0000035490336,0.21816505,-205.85625,972.5699,-0.008010181,-41.38393,170.81358,-0.0016103141,-0.00050895324,2.6488726e-8,13.075023
1690153989163.2786,0.9754918,-0.000009365206,0.0000035475255,0.22003567,-206.54597,975.4141,-0.0080370195,-41.388676,170.66608,-0.001610501,-0.0005174448,-2.9623585e-8,13.289456
1690153989175.9207,0.97527426,-0.00000940623,0.0000035467244,0.22099797,-206.90086,976.8772,-0.008050829,-41.386303,170.57683,-0.0016104036,-0.00051979296,1.3303232e-7,13.358367
1690153989192.1921,0.9748379,-0.000009488096,0.00000354508,0.22291505,-207.59068,979.7176,-0.008077671,-41.39211,170.43198,-0.0016106312,-0.00052900583,6.58683e-8,13.592075
1690153989215.83,0.9745103,-0.000009548661,0.0000035439336,0.22434255,-208.1044,981.8316,-0.00809766,-41.392326,170.31233,-0.0016106436,-0.0005348192,-5.3589268e-8,13.734983
1690153989227.6897,0.97407144,-0.000009629342,0.0000035423648,0.22624059,-208.772,984.5761,-0.008123637,-41.395943,170.16734,-0.0016107822,-0.000542257,8.25965e-9,13.929603
1690153989247.861,0.9736061,-0.000009714117,0.0000035407022,0.22823481,-209.46182,987.4093,-0.008150479,-41.398907,170.01418,-0.001610901,-0.00055081886,-8.925327e-8,14.143762
1690153989259.0208,0.97326565,-0.000009775729,0.0000035394662,0.22968225,-209.96489,989.4742,-0.008170054,-41.39837,169.89586,-0.0016108801,-0.0005558145,-9.5439844e-8,14.271754
1690153989286.1494,0.97277886,-0.000009863276,0.0000035376654,0.2317355,-210.65485,992.3031,-0.0081969015,-41.402576,169.74666,-0.0016110403,-0.0005643559,2.499399e-8,14.497201
1690153989296.705,0.9724565,-0.000009920916,0.0000035364421,0.23308443,-211.11311,994.18115,-0.008214734,-41.401886,169.63754,-0.0016110112,-0.0005692723,9.131104e-8,14.627552
1690153989318.7942,0.97195286,-0.000010009846,0.0000035346397,0.23517585,-211.80315,997.0058,-0.008241584,-41.406586,169.4897,-0.0016111976,-0.00057853723,7.0609856e-9,14.859195
1690153989325.6853,0.9716302,-0.0000100666275,0.0000035334235,0.23650517,-212.24214,998.802,-0.008258665,-41.405445,169.3843,-0.0016111488,-0.000582744,1.4956873e-7,14.974756
1690153989359.2725,0.97110665,-0.000010157308,0.000003531632,0.2386458,-212.93224,1001.62244,-0.008285518,-41.41055,169.23709,-0.0016113532,-0.00059274776,-4.8261345e-8,15.22206
1690153989375.7065,0.9709038,-0.000010192601,0.000003530842,0.23946972,-213.20718,1002.7461,-0.008296217,-41.407455,169.16406,-0.0016112346,-0.000595281,-1.18643925e-7,15.284347
1690153989395.0273,0.97036016,-0.000010285705,0.0000035289315,0.24166304,-213.89738,1005.56305,-0.008323073,-41.413677,169.02084,-0.0016114716,-0.0006045851,4.8113847e-8,15.531999
1690153989409.2197,0.9698301,-0.000010375811,0.000003527028,0.24378192,-214.56114,1008.26984,-0.008348902,-41.41649,168.87247,-0.0016115826,-0.0006138434,-1.40840895e-8,15.76732
1690153989434.2107,0.96926576,-0.000010470877,0.000003524984,0.24601592,-215.25128,1011.0815,-0.008375756,-41.419212,168.71883,-0.0016116874,-0.0006228667,2.4501041e-8,16.00108
1690153989445.229,0.968787,-0.000010550962,0.0000035232165,0.24789478,-215.8297,1013.4361,-0.008398263,-41.419952,168.58603,-0.0016117119,-0.0006298669,1.6423822e-7,16.187994
1690153989459.1116,0.9681981,-0.00001064806,0.0000035211785,0.2501848,-216.51994,1016.24304,-0.008425121,-41.423565,168.43484,-0.0016118621,-0.0006399851,-1.2348242e-7,16.431862
1690153989476.074,0.9677909,-0.000010714897,0.000003519708,0.25175536,-216.99387,1018.16925,-0.008443562,-41.422478,168.32246,-0.0016118182,-0.0006447294,-6.892165e-8,16.556145
1690153989501.6794,0.9673032,-0.0000107941905,0.0000035179924,0.25362277,-217.54434,1020.4046,-0.008464983,-41.424896,168.20087,-0.001611911,-0.0006524509,-1.7385002e-8,16.756863
1690153989512.5232,0.9666776,-0.0000108954055,0.0000035156854,0.25599688,-218.23471,1023.2052,-0.008491846,-41.42955,168.05109,-0.0016120897,-0.00066304614,6.309984e-8,17.03298
1690153989526.1035,0.9660374,-0.000010997476,0.0000035134497,0.25840226,-218.92505,1026.003,-0.008518708,-41.43241,167.89703,-0.001612203,-0.0006732579,-1.5120153e-9,17.292093
1690153989543.0415,0.9655991,-0.0000110672345,0.0000035117966,0.2600353,-219.3895,1027.8844,-0.00853678,-41.430664,167.78612,-0.0016121322,-0.00067737454,8.445161e-8,17.402449
1690153989563.0728,0.96508294,-0.000011148242,0.0000035099954,0.26194453,-219.92899,1030.0677,-0.008557773,-41.433434,167.66707,-0.0016122415,-0.0006862736,3.366616e-8,17.62856
1690153989576.0972,0.96440804,-0.000011253702,0.0000035075047,0.26441836,-220.61949,1032.8595,-0.008584642,-41.438164,167.51764,-0.001612425,-0.0006971447,3.444604e-8,17.909155
1690153989592.5571,0.9637121,-0.0000113609185,0.0000035050557,0.2669436,-221.30997,1035.6484,-0.00861151,-41.44105,167.36343,-0.001612537,-0.0007077993,5.7156395e-8,18.183304
1690153989611.1257,0.9631632,-0.000011445347,0.0000035029493,0.26891735,-221.84595,1037.8119,-0.008632366,-41.440384,167.2388,-0.0016125039,-0.0007131079,2.9228335e-7,18.331358
1690153989626.448,0.962447,-0.000011553768,0.0000035004052,0.27146938,-222.5312,1040.5748,-0.00865903,-41.44507,167.08966,-0.0016126946,-0.0007258974,-1.5664925e-8,18.64644
1690153989647.8652,0.9617069,-0.000011665178,0.0000034976356,0.27408007,-223.2218,1043.3567,-0.008685902,-41.447926,166.93565,-0.0016128022,-0.0007363844,1.1476502e-7,18.921865
1690153989659.5134,0.9610105,-0.000011768541,0.0000034951458,0.27651173,-223.85115,1045.8896,-0.008710391,-41.449123,166.79285,-0.0016128543,-0.0007456137,-8.61539e-8,19.150318
1690153989684.419,0.96023524,-0.000011882826,0.0000034922707,0.2791922,-224.54185,1048.6666,-0.008737267,-41.45257,166.64008,-0.0016129849,-0.0007568974,1.843558e-8,19.44628
1690153989694.707,0.959692,-0.0000119619135,0.0000034903346,0.28105363,-225.02008,1050.5883,-0.008755876,-41.451496,166.5268,-0.0016129473,-0.0007634508,-1.3664913e-7,19.608147
1690153989718.9497,0.95887667,-0.000012079701,0.0000034873995,0.28382286,-225.71092,1053.3611,-0.008782757,-41.456276,166.37808,-0.0016131311,-0.0007750123,-2.0832471e-9,19.907858
1690153989726.0588,0.9583672,-0.000012152857,0.000003485509,0.28553832,-226.13976,1055.0817,-0.008799444,-41.454433,166.27486,-0.0016130573,-0.0007796638,6.345102e-8,20.030554
1690153989759.3867,0.9575274,-0.000012271957,0.000003482538,0.28834242,-226.83066,1057.8502,-0.008826328,-41.46069,166.12735,-0.0016133055,-0.0007944606,-1.0149483e-7,20.403316
1690153989771.2302,0.9571512,-0.000012325274,0.0000034810894,0.28958863,-227.13487,1059.0692,-0.0088381665,-41.456886,166.04852,-0.0016131517,-0.00079636445,1.1985804e-7,20.461477
1690153989776.123,0.9562776,-0.000012447487,0.0000034779277,0.29246062,-227.82588,1061.8342,-0.008865055,-41.463886,165.90437,-0.0016134275,-0.0008102215,-2.2474412e-8,20.811958
1690153989800.6255,0.9556339,-0.0000125365395,0.0000034756458,0.29455706,-228.33253,1063.8605,-0.00888477,-41.463852,165.78622,-0.001613427,-0.00081801676,-4.81089e-8,21.011097
1690153989809.369,0.9553923,-0.00001257015,0.0000034746781,0.29533988,-228.5239,1064.6257,-0.008892216,-41.460247,165.73384,-0.001613273,-0.0008189284,5.18061e-7,21.055704
1690153989828.5884,0.95446515,-0.000012697275,0.0000034712539,0.29832247,-229.21503,1067.3856,-0.008919109,-41.46855,165.59315,-0.0016136057,-0.00083313574,1.0100425e-7,21.406345
1690153989843.3804,0.95400226,-0.000012760176,0.0000034695558,0.29979944,-229.56616,1068.7876,-0.008932772,-41.466473,165.50562,-0.0016135327,-0.00083890633,-2.3629693e-7,21.54222
1690153989859.6736,0.9530478,-0.000012888479,0.0000034661705,0.3028199,-230.25731,1071.5435,-0.008959666,-41.472736,165.35991,-0.0016137693,-0.0008521516,7.60127e-8,21.892921
1690153989879.5063,0.9521868,-0.000013003714,0.0000034628945,0.30551645,-230.8707,1073.9875,-0.008983534,-41.474354,165.22086,-0.0016138311,-0.0008625547,1.02278776e-7,22.162651
1690153989892.9568,0.95122,-0.000013131135,0.0000034594236,0.30851355,-231.54227,1076.6606,-0.009009666,-41.477566,165.07193,-0.0016139592,-0.0008754186,-2.3225462e-8,22.48833
1690153989924.452,0.9501988,-0.000013264402,0.0000034557067,0.31164426,-232.2334,1079.4089,-0.009036559,-41.48057,164.9178,-0.0016140782,-0.00088853034,-1.0301175e-7,22.822117
1690153989926.808,0.9493714,-0.000013371188,0.0000034527359,0.31415576,-232.78886,1081.6162,-0.009058173,-41.480747,164.78937,-0.0016140821,-0.00089798315,2.948954e-8,23.069271
1690153989942.7112,0.9483113,-0.000013506934,0.0000034488392,0.31734157,-233.48012,1084.3599,-0.00908507,-41.48487,164.6382,-0.001614242,-0.0009114758,9.234385e-8,23.416492
1690153989960.1692,0.9481778,-0.000013523938,0.0000034483419,0.31774017,-233.57153,1084.7231,-0.009088627,-41.481667,164.6053,-0.0016141152,-0.00091182545,1.821652e-7,23.429022
1690153989976.395,0.9471439,-0.000013654435,0.000003444626,0.32080895,-234.21947,1087.2919,-0.009113839,-41.48572,164.47066,-0.0016142798,-0.00092377036,-1.2745285e-7,23.72571
1690153990001.1528,0.9460271,-0.0000137939,0.0000034406028,0.3240877,-234.91077,1090.0302,-0.009140738,-41.490234,164.31757,-0.0016144529,-0.00093936094,-1.12498935e-8,24.129868
1690153990009.6594,0.94493264,-0.000013929172,0.0000034366105,0.32726493,-235.57126,1092.644,-0.009166439,-41.491905,164.1688,-0.0016145168,-0.00095105276,5.4031126e-9,24.432348
1690153990026.4407,0.94376284,-0.000014072456,0.0000034322331,0.33062315,-236.26263,1095.3773,-0.009193341,-41.49489,164.01454,-0.0016146317,-0.00096515456,3.88273e-8,24.796734
1690153990043.1506,0.9431148,-0.000014150852,0.0000034299057,0.33246708,-236.64035,1096.8701,-0.009208039,-41.491558,163.92104,-0.0016145082,-0.0009703202,-2.437487e-7,24.920416
1690153990059.8193,0.9418907,-0.000014298087,0.000003425345,0.33591953,-237.33191,1099.5996,-0.009234949,-41.497837,163.77426,-0.0016147465,-0.0009856509,1.6588116e-8,25.32342
1690153990093.2925,0.94065005,-0.000014445146,0.00000342088,0.33937812,-238.02335,1102.3263,-0.009261854,-41.50125,163.61966,-0.0016148819,-0.0010011216,-8.931887e-8,25.716726
1690153990119.843,0.9393961,-0.000014592248,0.0000034163068,0.3428337,-238.70546,1105.0134,-0.009288396,-41.50356,163.46619,-0.0016149698,-0.0010155108,2.583719e-9,26.088934
1690153990126.4133,0.93807614,-0.000014745381,0.0000034114641,0.34642908,-239.39702,1107.735,-0.009315305,-41.50557,163.3113,-0.0016150499,-0.0010288745,-9.017596e-8,26.429577
1690153990157.276,0.93673205,-0.00001489919,0.0000034066393,0.35004714,-240.08858,1110.454,-0.009342215,-41.50806,163.15614,-0.0016151427,-0.0010434095,9.214755e-8,26.808838
1690153990176.6086,0.9362345,-0.000014955614,0.0000034048737,0.35137585,-240.35199,1111.4896,-0.009352465,-41.503536,163.08553,-0.0016149736,-0.001047458,-2.4969512e-7,26.902704
1690153990193.4766,0.93482596,-0.00001511484,0.0000033995766,0.3551062,-241.04381,1114.2053,-0.009379385,-41.509975,162.94106,-0.0016152173,-0.0010623796,7.5231654e-8,27.295776
1690153990221.1335,0.9334043,-0.000015273285,0.0000033943595,0.3588264,-241.73546,1116.9181,-0.009406298,-41.513546,162.78622,-0.0016153569,-0.0010791692,4.9582162e-8,27.726221
1690153990231.647,0.93194425,-0.00001543397,0.0000033890408,0.36260158,-242.42715,1119.6283,-0.009433214,-41.515877,162.63074,-0.0016154511,-0.0010949397,-1.1344124e-7,28.126484
1690153990243.376,0.9304485,-0.000015596817,0.0000033835138,0.36642274,-243.11888,1122.3359,-0.00946013,-41.518154,162.47517,-0.0016155386,-0.001110667,-5.4221434e-8,28.531885
1690153990277.2004,0.9295028,-0.000015698804,0.0000033800052,0.368815,-243.55956,1124.0602,-0.009477277,-41.515526,162.3696,-0.001615435,-0.0011175504,9.094692e-9,28.710947
1690153990293.747,0.92842185,-0.000015814037,0.0000033761576,0.37152764,-244.04468,1125.9565,-0.009496154,-41.51657,162.26111,-0.001615478,-0.0011280624,-9.1660795e-8,28.977268
1690153990309.8281,0.92683,-0.000015982394,0.000003370332,0.37548125,-244.7366,1128.6582,-0.009523078,-41.52255,162.11124,-0.0016157073,-0.0011466728,6.299975e-8,29.45945
1690153990342.3032,0.9252347,-0.000016149303,0.0000033643933,0.37939534,-245.41922,1131.3213,-0.00954964,-41.524994,161.95786,-0.001615804,-0.0011627955,-5.7124467e-8,29.872795
1690153990352.7537,0.9236093,-0.000016317059,0.0000033584422,0.3833352,-246.09453,1133.9531,-0.009575917,-41.526676,161.80574,-0.0016158669,-0.0011779972,7.1741916e-8,30.266293
1690153990359.8354,0.9219144,-0.000016489965,0.0000033521947,0.38739368,-246.78644,1136.647,-0.00960284,-41.529232,161.6504,-0.0016159689,-0.0011954864,-4.768163e-8,30.712185
1690153990381.2407,0.92084247,-0.00001659813,0.0000033482859,0.38993484,-247.21605,1138.319,-0.009619557,-41.525684,161.54695,-0.0016158335,-0.0012019582,-1.9399046e-7,30.875092
1690153990393.3804,0.92013466,-0.000016668953,0.0000033457643,0.39160204,-247.50119,1139.4281,-0.009630653,-41.52326,161.47859,-0.0016157436,-0.0012067615,-4.4383177e-7,30.992796
1690153990418.1416,0.9183235,-0.000016849226,0.0000033390327,0.39583048,-248.19336,1142.117,-0.009657587,-41.531754,161.33345,-0.0016160673,-0.0012272885,-8.006523e-8,31.52927
1690153990428.675,0.9170229,-0.000016977136,0.000003334269,0.39883468,-248.69278,1144.0563,-0.00967702,-41.53117,161.21625,-0.0016160435,-0.0012393778,-1.9550793e-8,31.84115
1690153990459.6702,0.91513854,-0.000017160297,0.0000033274257,0.40313953,-249.38493,1146.7406,-0.009703953,-41.535545,161.06506,-0.0016162156,-0.0012580297,-1.15794684e-7,32.318024
1690153990488.6084,0.9139496,-0.000017274679,0.0000033231095,0.40582773,-249.82301,1148.4391,-0.009721,-41.53338,160.95981,-0.0016161355,-0.0012683901,-3.1618055e-7,32.57846
1690153990499.102,0.91199195,-0.000017461152,0.0000033159743,0.41020805,-250.51523,1151.1191,-0.0097479345,-41.538548,160.81004,-0.0016163298,-0.001287501,1.1761178e-7,33.076
1690153990509.9255,0.9100115,-0.00001764748,0.000003308722,0.41458306,-251.20732,1153.7964,-0.009774865,-41.541107,160.6543,-0.0016164323,-0.0013064514,-2.7900898e-8,33.55895
1690153990535.9702,0.9087204,-0.000017767614,0.0000033040262,0.41740537,-251.65063,1155.5106,-0.009792116,-41.53741,160.54826,-0.0016162939,-0.0013139814,-3.15998e-7,33.745647
1690153990551.6338,0.907425,-0.000017887232,0.0000032992848,0.42021412,-252.09001,1157.2081,-0.009809213,-41.53761,160.44843,-0.0016162933,-0.001325149,1.3982789e-7,34.04255
1690153990572.2283,0.9053173,-0.000018079552,0.0000032917008,0.4247358,-252.78229,1159.8796,-0.00983615,-41.544132,160.29858,-0.0016165489,-0.0013477184,1.1808312e-7,34.6181
1690153990576.8423,0.90329635,-0.000018262002,0.0000032842672,0.42901713,-253.436,1162.4004,-0.009861588,-41.545532,160.15028,-0.0016166073,-0.001365656,-1.0120224e-7,35.07405
1690153990593.2996,0.90108943,-0.000018458577,0.000003276216,0.43363324,-254.12823,1165.0668,-0.009888523,-41.54755,159.99481,-0.0016166836,-0.0013848562,2.920706e-8,35.56982
1690153990613.3384,0.90049666,-0.000018510736,0.0000032741511,0.43486282,-254.31671,1165.7931,-0.009895857,-41.540913,159.94035,-0.0016164227,-0.0013859562,1.6985297e-7,35.600906
1690153990626.9844,0.89820975,-0.00001871098,0.000003265864,0.4395672,-255.00482,1168.4397,-0.009922633,-41.547707,159.79683,-0.001616688,-0.0014060265,1.603971e-7,36.11419
1690153990652.735,0.8958783,-0.000018912546,0.0000032573437,0.4442994,-255.69708,1171.1001,-0.00994957,-41.55038,159.64053,-0.001616794,-0.0014276092,2.1093838e-8,36.667
1690153990660.2427,0.8939297,-0.000019079034,0.0000032501994,0.44820714,-256.2627,1173.2722,-0.009971578,-41.54847,159.51009,-0.0016167164,-0.0014396681,2.0262439e-7,36.98081
1690153990685.7908,0.8914937,-0.000019284173,0.000003241492,0.45303318,-256.95505,1175.928,-0.009998518,-41.552143,159.356,-0.001616864,-0.0014628773,-1.2694895e-7,37.573635
1690153990695.9023,0.8904208,-0.000019373698,0.0000032376297,0.45513824,-257.2616,1177.1039,-0.010010446,-41.546104,159.27802,-0.0016166308,-0.0014664382,-2.3117488e-7,37.663025
1690153990710.343,0.88787454,-0.000019584028,0.0000032285027,0.46008554,-257.95407,1179.756,-0.010037392,-41.552776,159.13005,-0.00161689,-0.0014902819,-2.282815e-7,38.27688
1690153990742.381,0.88631606,-0.000019711724,0.0000032227297,0.4630807,-258.37955,1181.3851,-0.010053948,-41.54927,159.0278,-0.0016167492,-0.0014997674,2.3744962e-8,38.525764
1690153990752.7366,0.8840961,-0.000019891597,0.000003214611,0.46730503,-258.96313,1183.6172,-0.010076656,-41.551456,158.89964,-0.0016168331,-0.0015160273,3.4690576e-8,38.94635
1690153990760.107,0.88141525,-0.000020105777,0.0000032049686,0.4723422,-259.65552,1186.2627,-0.010103598,-41.55557,158.74469,-0.0016169924,-0.0015417881,9.63055e-8,39.607964
1690153990783.105,0.87976617,-0.0000202364,0.000003198867,0.4754066,-260.0812,1187.8888,-0.010120163,-41.550907,158.64278,-0.0016168122,-0.0015494608,2.8562837e-8,39.8034
1690153990793.7463,0.87859076,-0.000020328698,0.0000031945963,0.4775753,-260.37943,1189.0272,-0.010131766,-41.54733,158.57239,-0.0016166663,-0.0015541795,4.3908713e-7,39.93145
1690153990820.278,0.87575686,-0.00002054909,0.0000031842617,0.48275232,-261.07196,1191.6676,-0.010158714,-41.55579,158.42393,-0.0016170029,-0.0015828572,-2.0997474e-8,40.661076
1690153990830.846,0.87394696,-0.000020687863,0.0000031778698,0.48602125,-261.51117,1193.3419,-0.010175805,-41.55189,158.31927,-0.0016168619,-0.0015927337,-6.917892e-7,40.904728
1690153990843.5825,0.8710221,-0.000020910493,0.000003167031,0.49124372,-262.20367,1195.9779,-0.010202751,-41.556866,158.16707,-0.0016170416,-0.0016189176,1.3247751e-7,41.59184
1690153990860.2744,0.86918485,-0.000021048405,0.0000031604193,0.49448738,-262.63715,1197.6276,-0.010219618,-41.552494,158.06366,-0.0016168794,-0.0016282913,-3.6887326e-7,41.825253
1690153990880.828,0.866838,-0.000021222666,0.0000031520779,0.4985899,-263.17056,1199.6555,-0.010240374,-41.552902,157.94543,-0.0016168907,-0.0016426139,-5.8399152e-8,42.196815
1690153990893.8562,0.86377805,-0.000021447999,0.0000031406598,0.5038724,-263.85434,1202.2523,-0.010266981,-41.556858,157.79276,-0.0016170434,-0.0016696579,1.7093068e-8,42.892628
1690153990913.7996,0.8606218,-0.00002167646,0.000003129295,0.5092445,-264.5467,1204.8794,-0.010293921,-41.55743,157.63576,-0.0016170661,-0.0016927414,4.805995e-8,43.482445
1690153990927.321,0.85808516,-0.00002185804,0.000003119998,0.51350737,-265.08997,1206.9393,-0.010315062,-41.5541,157.50926,-0.001616935,-0.0017076351,1.4688756e-7,43.86642
1690153990952.5237,0.8547746,-0.000022092165,0.0000031077554,0.51899934,-265.7824,1209.5618,-0.010342006,-41.55623,157.35532,-0.0016170181,-0.001731272,1.4023294e-7,44.472233
1690153990963.037,0.8521255,-0.000022277078,0.0000030979643,0.52333736,-266.32736,1211.6245,-0.010363211,-41.553158,157.22865,-0.0016169057,-0.0017469821,-3.297971e-7,44.8704
1690153990977.2595,0.8486738,-0.000022514558,0.0000030854035,0.5289164,-267.01978,1214.2423,-0.010390154,-41.555096,157.07423,-0.0016169746,-0.0017715922,7.860209e-8,45.508743
1690153990993.8008,0.846442,-0.000022666401,0.0000030772082,0.53248084,-267.46344,1215.9191,-0.010407417,-41.549973,156.96848,-0.0016167738,-0.0017826773,1.5741e-7,45.795864
1690153991016.0347,0.84346825,-0.000022866221,0.0000030664833,0.537179,-268.03906,1218.0923,-0.010429816,-41.5509,156.8405,-0.0016168186,-0.0018025634,-4.2440294e-7,46.29951
1690153991027.3562,0.83983624,-0.00002310702,0.0000030533656,0.5428398,-268.72632,1220.6843,-0.010456558,-41.552685,156.68636,-0.0016168816,-0.0018280228,4.068892e-9,46.958115
1690153991057.949,0.8360947,-0.000023351771,0.0000030396234,0.54858524,-269.4186,1223.293,-0.010483496,-41.551907,156.5287,-0.001616852,-0.001852658,-5.932584e-8,47.590927
1690153991060.3262,0.8335431,-0.000023516428,0.0000030303509,0.5524543,-269.8866,1225.0557,-0.010501706,-41.54628,156.41826,-0.0016166378,-0.0018644086,-3.8208248e-7,47.8898
1690153991084.544,0.82965916,-0.000023763963,0.000003016224,0.55827034,-270.57895,1227.6599,-0.010528646,-41.548855,156.26486,-0.0016167349,-0.0018914492,-1.7929864e-7,48.587013
1690153991095.1497,0.8291648,-0.000023795053,0.0000030145197,0.5590042,-270.66885,1227.9988,-0.010532144,-41.542873,156.23225,-0.0016165201,-0.0018951814,-0.0000014397912,48.671284
1690153991110.6892,0.8251362,-0.000024047125,0.0000030000713,0.5649339,-271.36127,1230.6002,-0.010559088,-41.54609,156.08752,-0.0016166291,-0.0019159127,-3.052347e-7,49.213833
1690153991129.1958,0.8225236,-0.00002420893,0.0000029904436,0.568731,-271.81165,1232.2921,-0.010576612,-41.54105,155.9802,-0.0016164286,-0.0019301538,-1.7965192e-8,49.58295
1690153991144.221,0.81878704,-0.000024437397,0.0000029768087,0.5740974,-272.4368,1234.6377,-0.010600938,-41.541904,155.8414,-0.001616461,-0.001953038,3.7877122e-8,50.17132
1690153991162.7937,0.81455654,-0.000024692008,0.0000029615674,0.58008415,-273.12894,1237.2323,-0.010627871,-41.54155,155.6851,-0.0016164512,-0.001978914,-2.2248794e-7,50.83202
1690153991177.3728,0.8107346,-0.000024918929,0.0000029476137,0.5854138,-273.74478,1239.5392,-0.010651834,-41.53797,155.54333,-0.0016163058,-0.00200027,1.8799635e-7,51.384968
1690153991203.3074,0.8063198,-0.000025176983,0.0000029316561,0.59147984,-274.43686,1242.1289,-0.010678764,-41.53667,155.38728,-0.0016162605,-0.0020254843,-1.7899009e-7,52.028545
1690153991213.8032,0.8025117,-0.000025396588,0.0000029177145,0.59663635,-275.027,1244.3358,-0.010701728,-41.532215,155.25137,-0.0016160831,-0.0020446884,9.012413e-8,52.524525
1690153991227.3772,0.79789096,-0.000025658625,0.0000029011985,0.60280174,-275.71902,1246.9207,-0.010728655,-41.530983,155.09575,-0.0016160388,-0.0020703876,-1.6365593e-7,53.181683
1690153991244.1614,0.7949985,-0.000025820598,0.0000028908264,0.6066113,-276.15326,1248.5424,-0.010745552,-41.524075,154.99245,-0.0016157705,-0.0020835183,-1.9597958e-7,53.5178
1690153991270.0537,0.7911568,-0.000026033656,0.0000028767618,0.6116134,-276.71393,1250.6338,-0.010767369,-41.522884,154.86746,-0.0016157229,-0.0021034884,-9.020854e-8,54.03108
1690153991280.5762,0.78628623,-0.00002629942,0.0000028592428,0.61786234,-277.4058,1253.2123,-0.010794291,-41.522465,154.71193,-0.0016157088,-0.0021314311,-2.5347552e-7,54.74687
1690153991305.3467,0.7813519,-0.000026565018,0.0000028409243,0.6240906,-278.09753,1255.7881,-0.010821208,-41.51892,154.55412,-0.0016155643,-0.002157769,1.8068945e-7,55.42931
1690153991310.635,0.7782381,-0.000026730055,0.0000028296495,0.6279693,-278.52847,1257.3923,-0.010837977,-41.510933,154.45268,-0.0016152603,-0.00216859,-2.8815265e-7,55.703583
1690153991340.64,0.77309835,-0.000026999129,0.0000028108218,0.6342862,-279.22025,1259.964,-0.010864895,-41.511497,154.29936,-0.0016152809,-0.0021972246,-1.8270148e-7,56.437
1690153991351.1,0.7715848,-0.00002707735,0.0000028054237,0.6361265,-279.43066,1260.7468,-0.010873083,-41.502335,154.2426,-0.0016149238,-0.0022048105,-1.4322977e-7,56.630924
1690153991361.0059,0.7662551,-0.000027350266,0.000002785996,0.6425365,-280.1224,1263.3151,-0.010899999,-41.5052,154.09476,-0.0016150291,-0.0022287383,2.773561e-7,57.250694
1690153991378.504,0.7629965,-0.000027514532,0.0000027744043,0.64640266,-280.54654,1264.8898,-0.010916503,-41.49765,153.99403,-0.001614747,-0.002243012,-5.629594e-7,57.61341
1690153991394.246,0.7597658,-0.000027676213,0.0000027625088,0.6501968,-280.95764,1266.4148,-0.0109325,-41.49341,153.90146,-0.0016145778,-0.0022549843,-2.6962215e-7,57.921806
1690153991414.1758,0.75420195,-0.00002795036,0.000002742479,0.6566425,-281.64914,1268.9772,-0.010959406,-41.494415,153.74774,-0.0016146135,-0.002286056,-1.7830526e-8,58.720592
1690153991427.4634,0.74888736,-0.000028208056,0.000002723205,0.6626973,-282.30148,1271.393,-0.01098479,-41.488987,153.59859,-0.0016144026,-0.0023115487,-4.911495e-8,59.374424
1690153991456.264,0.7431041,-0.000028483748,0.000002702256,0.66917586,-282.9927,1273.9502,-0.011011686,-41.48403,153.44232,-0.0016142126,-0.0023374532,-2.6822153e-7,60.04082
1690153991461.3186,0.7385763,-0.000028696295,0.000002685825,0.67416984,-283.52536,1275.9198,-0.011032412,-41.476223,153.31952,-0.0016139062,-0.0023554012,-9.424341e-8,60.5028
1690153991477.4092,0.73259014,-0.00002897291,0.0000026641371,0.68067,-284.21643,1278.4725,-0.011059303,-41.473,153.16505,-0.0016137823,-0.0023824947,-2.0722206e-7,61.19853
1690153991494.329,0.73086154,-0.000029051926,0.0000026578452,0.6825257,-284.42026,1279.226,-0.011067234,-41.462578,153.11084,-0.0016133718,-0.002390906,1.4518709e-7,61.414276
1690153991511.0532,0.72488856,-0.000029321694,0.0000026362336,0.68886614,-285.0906,1281.6991,-0.011093318,-41.46396,152.96732,-0.0016134273,-0.0024133264,-4.257589e-9,61.993607
1690153991533.578,0.718617,-0.000029599883,0.0000026136104,0.695406,-285.7814,1284.2458,-0.011120198,-41.458252,152.81065,-0.0016132056,-0.0024411278,-5.3503083e-8,62.70626
1690153991544.8247,0.7122693,-0.000029876615,0.0000025904994,0.7019063,-286.46765,1286.7738,-0.011146901,-41.451164,152.65569,-0.0016129299,-0.0024659827,-6.378302e-8,63.344185
1690153991577.7822,0.70571977,-0.000030156883,0.0000025667212,0.708491,-287.1582,1289.3154,-0.011173771,-41.443943,152.4999,-0.001612647,-0.002491391,6.985304e-8,63.996338
1690153991594.4817,0.7013131,-0.000030342839,0.0000025504312,0.7128533,-287.62027,1291.0155,-0.011191751,-41.434166,152.3931,-0.0016122747,-0.002506716,-5.3830325e-7,64.39178
1690153991611.3303,0.69453967,-0.000030623716,0.0000025259283,0.71945435,-288.3107,1293.5529,-0.011218617,-41.4307,152.24083,-0.0016121358,-0.0025318558,-2.5611263e-7,65.03425
1690153991627.798,0.68767136,-0.000030903295,0.0000025009713,0.72602206,-289.00092,1296.0875,-0.011245473,-41.42286,152.08403,-0.0016118245,-0.0025612337,1.845104e-7,65.787224
1690153991654.8105,0.68065006,-0.000031183652,0.0000024755227,0.73260874,-289.69098,1298.6196,-0.011272325,-41.41454,151.9293,-0.0016115081,-0.002585348,-3.66777e-7,66.4042
1690153991660.8982,0.67368853,-0.00003145656,0.000002450064,0.73901546,-290.3657,1301.0934,-0.01129858,-41.40566,151.77734,-0.0016111576,-0.0026107687,-2.4989005e-8,67.05583
1690153991677.627,0.6664071,-0.00003173627,0.0000024237236,0.745588,-291.05548,1303.6204,-0.011325421,-41.397163,151.62303,-0.0016108277,-0.0026353116,-1.0240496e-7,67.68607
1690153991700.3872,0.6636965,-0.000031839136,0.0000024137469,0.74800193,-291.30814,1304.5461,-0.011335252,-41.385944,151.56276,-0.0016104081,-0.0026412967,-0.0000013459968,67.84525
1690153991711.2986,0.65624267,-0.00003211808,0.0000023864263,0.75454986,-291.99786,1307.0697,-0.01136209,-41.384098,151.41267,-0.0016103194,-0.0026676664,-9.880653e-8,68.52268
1690153991742.7588,0.64866924,-0.000032395645,0.0000023588734,0.7610704,-292.68732,1309.5906,-0.011388917,-41.37493,151.25743,-0.0016099631,-0.0026955113,-1.2668994e-7,69.2406
1690153991753.2122,0.6437948,-0.000032571264,0.000002341244,0.7651982,-293.12546,1311.1921,-0.011405965,-41.364235,151.15846,-0.0016095464,-0.002708045,-8.914442e-8,69.563484
1690153991761.1628,0.6359267,-0.00003284971,0.0000023131429,0.77174944,-293.8147,1313.709,-0.011432786,-41.358997,151.00769,-0.0016093496,-0.0027312164,-6.1220794e-7,70.15898
1690153991777.6965,0.63078064,-0.00003302939,0.000002293971,0.77596116,-294.26587,1315.356,-0.011450341,-41.347717,150.90398,-0.001608892,-0.0027515332,6.847959e-7,70.67246
1690153991806.7412,0.6271116,-0.00003315602,0.000002280304,0.77892935,-294.58105,1316.5061,-0.011462606,-41.34059,150.83485,-0.0016086224,-0.0027571763,1.4817529e-7,70.82146
1690153991817.6997,0.619059,-0.00003342922,0.0000022508489,0.7853444,-295.26346,1318.9938,-0.011489159,-41.33709,150.68544,-0.0016084901,-0.0027831416,-1.3635183e-7,71.491936
1690153991827.9492,0.6108176,-0.000033702683,0.0000022210188,0.7917713,-295.95212,1321.5026,-0.011515956,-41.326607,150.53192,-0.0016080819,-0.0028097867,-1.4548102e-7,72.174576
1690153991847.3904,0.6056263,-0.00003387239,0.0000022016482,0.7957492,-296.3819,1323.0679,-0.01153268,-41.315243,150.43564,-0.0016076342,-0.0028237037,2.5167026e-7,72.530876
1690153991869.5566,0.6004868,-0.000034037534,0.0000021832857,0.79963464,-296.803,1324.6006,-0.011549066,-41.308285,150.34308,-0.0016073702,-0.0028372544,-2.713506e-7,72.87898
1690153991882.5413,0.59190947,-0.000034308752,0.000002151983,0.8060044,-297.49133,1327.1038,-0.01157585,-41.302128,150.19283,-0.0016071297,-0.0028602148,-1.6934108e-7,73.472755
1690153991894.838,0.5831899,-0.000034577948,0.0000021207118,0.8123358,-298.17938,1329.6044,-0.011602623,-41.290955,150.04077,-0.0016066952,-0.0028852376,-2.5269696e-7,74.11217
1690153991919.6274,0.57624996,-0.000034788343,0.000002095202,0.81727356,-298.72253,1331.5773,-0.011623758,-41.27927,149.92107,-0.0016062356,-0.002903258,8.536203e-8,74.5725
1690153991937.5542,0.56985885,-0.00003497847,0.0000020721131,0.82174253,-299.21494,1333.365,-0.011642918,-41.270443,149.81369,-0.0016058943,-0.002917549,-8.080403e-8,74.941246
1690153991953.9749,0.5608315,-0.00003524189,0.0000020392558,0.8279299,-299.9026,1335.8594,-0.011669676,-41.261684,149.66359,-0.0016055558,-0.0029410317,-2.4963163e-7,75.54588
